pos,corr_resp,trials.thisRepN,trials.thisTrialN,trials.thisN,trials.thisIndex,trials_2.thisRepN,trials_2.thisTrialN,trials_2.thisN,trials_2.thisIndex,thisRow.t,notes,trial.started,fixation.started,line1.started,line2.started,line3.started,line4.started,fixation.stopped,probe.started,key_resp.started,trial.stopped,key_resp.keys,key_resp.corr,key_resp.rt,key_resp.duration,participant,session,date,expName,psychopyVersion,frameRate,expStart,
-50,x,0,0,0,0,,,,,0.012442100000043865,,0.008344399997440632,0.012442100000043865,1.0062135999978636,1.0062135999978636,1.0062135999978636,1.0062135999978636,1.0232248000029358,2.0056000999975367,2.0056000999975367,3.122815000002447,x,1,1.055642599996645,None,760188,001,2024-10-17_11h49.05.642,sequential _learning,2024.1.5,None,2024-10-17 11h49.14.939329 +0530,
150,v,0,1,1,1,,,,,3.1275722999998834,,3.1237230000042473,3.1275722999998834,4.13795620000019,4.13795620000019,4.13795620000019,4.13795620000019,4.13795620000019,5.136637100004009,5.136637100004009,7.303220900001179,v,1,2.1569430000017746,None,760188,001,2024-10-17_11h49.05.642,sequential _learning,2024.1.5,None,2024-10-17 11h49.14.939329 +0530,
50,c,0,2,2,2,,,,,7.318344400002388,,7.303982899997209,7.318344400002388,8.318310399998154,8.318310399998154,8.318310399998154,8.318310399998154,8.318310399998154,9.317846600002667,9.317846600002667,9.801507399999537,c,1,0.4698757000005571,None,760188,001,2024-10-17_11h49.05.642,sequential _learning,2024.1.5,None,2024-10-17 11h49.14.939329 +0530,
-150,z,0,3,3,3,,,,,9.816796300001442,,9.80227929999819,9.816796300001442,10.817006400000537,10.817006400000537,10.817006400000537,10.817006400000537,10.817006400000537,11.81629729999986,11.81629729999986,12.449751400003152,z,1,0.6261028000008082,None,760188,001,2024-10-17_11h49.05.642,sequential _learning,2024.1.5,None,2024-10-17 11h49.14.939329 +0530,
-50,x,1,0,4,0,,,,,12.465227799999411,,12.450533800001722,12.465227799999411,13.448725900001591,13.448725900001591,13.448725900001591,13.448725900001591,13.46552050000173,14.463848999999755,14.463848999999755,15.215247300002375,x,1,0.7347157999975025,None,760188,001,2024-10-17_11h49.05.642,sequential _learning,2024.1.5,None,2024-10-17 11h49.14.939329 +0530,
150,v,1,1,5,1,,,,,15.230960799999593,,15.216166899997916,15.230960799999593,16.229622700004256,16.229622700004256,16.229622700004256,16.229622700004256,16.229622700004256,17.228909700002987,17.228909700002987,18.246237100000144,v,1,1.001583400000527,None,760188,001,2024-10-17_11h49.05.642,sequential _learning,2024.1.5,None,2024-10-17 11h49.14.939329 +0530,
50,c,1,2,6,2,,,,,18.261569599999348,,18.246950799999468,18.261569599999348,19.245004500000505,19.245004500000505,19.245004500000505,19.245004500000505,19.261613299997407,20.260016000000178,20.260016000000178,21.161402800003998,c,1,0.8950493000011193,None,760188,001,2024-10-17_11h49.05.642,sequential _learning,2024.1.5,None,2024-10-17 11h49.14.939329 +0530,
-150,z,1,3,7,3,,,,,21.177039300004253,,21.16300510000292,21.177039300004253,22.176125400001183,22.176125400001183,22.176125400001183,22.176125400001183,22.176125400001183,23.175208900000143,23.175208900000143,23.542558900000586,z,1,0.3555973999973503,None,760188,001,2024-10-17_11h49.05.642,sequential _learning,2024.1.5,None,2024-10-17 11h49.14.939329 +0530,
-50,x,2,0,8,0,,,,,23.55818829999771,,23.543334699999832,23.55818829999771,24.55801110000175,24.55801110000175,24.55801110000175,24.55801110000175,24.55801110000175,25.557252999999037,25.557252999999037,26.39117080000142,x,1,0.8327047000057064,None,760188,001,2024-10-17_11h49.05.642,sequential _learning,2024.1.5,None,2024-10-17 11h49.14.939329 +0530,
150,v,2,1,9,1,,,,,26.406136999998125,,26.392004799999995,26.406136999998125,27.406390299998748,27.406390299998748,27.406390299998748,27.406390299998748,27.406390299998748,28.405668699997477,28.405668699997477,29.105736600002274,v,1,0.6977502000008826,None,760188,001,2024-10-17_11h49.05.642,sequential _learning,2024.1.5,None,2024-10-17 11h49.14.939329 +0530,
50,c,2,2,10,2,,,,,29.121289200003957,,29.10647489999974,29.121289200003957,30.121122500000638,30.121122500000638,30.121122500000638,30.121122500000638,30.121122500000638,31.120072500001697,31.120072500001697,32.137269200000446,c,1,1.0133233000015025,None,760188,001,2024-10-17_11h49.05.642,sequential _learning,2024.1.5,None,2024-10-17 11h49.14.939329 +0530,
-150,z,2,3,11,3,,,,,32.15217870000197,,32.13794860000053,32.15217870000197,33.15291900000011,33.15291900000011,33.15291900000011,33.15291900000011,33.15291900000011,34.15148600000248,34.15148600000248,34.91969450000033,z,1,0.7616464000020642,None,760188,001,2024-10-17_11h49.05.642,sequential _learning,2024.1.5,None,2024-10-17 11h49.14.939329 +0530,
-50,x,3,0,12,0,,,,,34.934628599999996,,34.92060660000425,34.934628599999996,35.93419359999825,35.93419359999825,35.93419359999825,35.93419359999825,35.93419359999825,36.93351870000333,36.93351870000333,37.61740550000104,x,1,0.681616000001668,None,760188,001,2024-10-17_11h49.05.642,sequential _learning,2024.1.5,None,2024-10-17 11h49.14.939329 +0530,
150,v,3,1,13,1,,,,,37.632453400001395,,37.61820090000401,37.632453400001395,38.632583099999465,38.632583099999465,38.632583099999465,38.632583099999465,38.632583099999465,39.63148280000314,39.63148280000314,40.64874679999775,v,1,1.0148845000003348,None,760188,001,2024-10-17_11h49.05.642,sequential _learning,2024.1.5,None,2024-10-17 11h49.14.939329 +0530,
50,c,3,2,14,2,,,,,40.66426660000434,,40.64948269999877,40.66426660000434,41.663697100004356,41.663697100004356,41.663697100004356,41.663697100004356,41.663697100004356,42.662594599998556,42.662594599998556,43.463794100003724,c,1,0.7856042999992496,None,760188,001,2024-10-17_11h49.05.642,sequential _learning,2024.1.5,None,2024-10-17 11h49.14.939329 +0530,
-150,z,3,3,15,3,,,,,43.47958500000095,,43.46496209999896,43.47958500000095,44.47935349999898,44.47935349999898,44.47935349999898,44.47935349999898,44.47935349999898,45.4776966999998,45.4776966999998,46.1282943000042,z,1,0.6454816999976174,None,760188,001,2024-10-17_11h49.05.642,sequential _learning,2024.1.5,None,2024-10-17 11h49.14.939329 +0530,
-50,x,4,0,16,0,,,,,46.143706299997575,,46.12911870000244,46.143706299997575,47.14377940000122,47.14377940000122,47.14377940000122,47.14377940000122,47.14377940000122,48.14257910000015,48.14257910000015,48.843633199998294,x,1,0.6974722000013571,None,760188,001,2024-10-17_11h49.05.642,sequential _learning,2024.1.5,None,2024-10-17 11h49.14.939329 +0530,
150,v,4,1,17,1,,,,,48.858899400001974,,48.844507200003136,48.858899400001974,49.85922690000007,49.85922690000007,49.85922690000007,49.85922690000007,49.85922690000007,50.85781000000134,50.85781000000134,51.59184220000316,v,1,0.7300562000018544,None,760188,001,2024-10-17_11h49.05.642,sequential _learning,2024.1.5,None,2024-10-17 11h49.14.939329 +0530,
50,c,4,2,18,2,,,,,51.606818200001726,,51.59276790000149,51.606818200001726,52.60688169999776,52.60688169999776,52.60688169999776,52.60688169999776,52.60688169999776,53.60649079999712,53.60649079999712,54.607269899999665,c,1,0.9869276999961585,None,760188,001,2024-10-17_11h49.05.642,sequential _learning,2024.1.5,None,2024-10-17 11h49.14.939329 +0530,
-150,z,4,3,19,3,,,,,54.622245899998234,,54.60843269999896,54.622245899998234,55.621438000001945,55.621438000001945,55.621438000001945,55.621438000001945,55.621438000001945,56.62067779999779,56.62067779999779,57.67127210000035,z,1,1.0378528000001097,None,760188,001,2024-10-17_11h49.05.642,sequential _learning,2024.1.5,None,2024-10-17 11h49.14.939329 +0530,
-50,x,5,0,20,0,,,,,57.686844000003475,,57.672064300000784,57.686844000003475,58.68648850000318,58.68648850000318,58.68648850000318,58.68648850000318,58.68648850000318,59.68566119999741,59.68566119999741,60.586377899999206,x,1,0.8995629999990342,None,760188,001,2024-10-17_11h49.05.642,sequential _learning,2024.1.5,None,2024-10-17 11h49.14.939329 +0530,
150,v,5,1,21,1,,,,,60.601193800001056,,60.5871862999993,60.601193800001056,61.60118209999928,61.60118209999928,61.60118209999928,61.60118209999928,61.60118209999928,62.60034099999757,62.60034099999757,63.23467210000672,v,1,0.6217585999984294,None,760188,001,2024-10-17_11h49.05.642,sequential _learning,2024.1.5,None,2024-10-17 11h49.14.939329 +0530,
50,c,5,2,22,2,,,,,63.25008389999857,,63.23538019999978,63.25008389999857,64.2493558999995,64.2493558999995,64.2493558999995,64.2493558999995,64.2493558999995,65.24843190000684,65.24843190000684,66.44894780000322,c,1,1.1937846999935573,None,760188,001,2024-10-17_11h49.05.642,sequential _learning,2024.1.5,None,2024-10-17 11h49.14.939329 +0530,
-150,z,5,3,23,3,,,,,66.4644205999939,,66.44976230000611,66.4644205999939,67.4641166000074,67.4641166000074,67.4641166000074,67.4641166000074,67.4641166000074,68.46386230000644,68.46386230000644,68.76417629999924,z,1,0.2983936999953585,None,760188,001,2024-10-17_11h49.05.642,sequential _learning,2024.1.5,None,2024-10-17 11h49.14.939329 +0530,
-50,x,6,0,24,0,,,,,68.77935019999859,,68.76495769999747,68.77935019999859,69.77932479999436,69.77932479999436,69.77932479999436,69.77932479999436,69.77932479999436,70.77913209999679,70.77913209999679,71.71242470000288,x,1,0.9282675000140443,None,760188,001,2024-10-17_11h49.05.642,sequential _learning,2024.1.5,None,2024-10-17 11h49.14.939329 +0530,
150,v,6,1,25,1,,,,,71.72743379999883,,71.71324040000036,71.72743379999883,72.72784490000049,72.72784490000049,72.72784490000049,72.72784490000049,72.72784490000049,73.72680540000147,73.72680540000147,74.5103858000075,v,1,0.7756174999958603,None,760188,001,2024-10-17_11h49.05.642,sequential _learning,2024.1.5,None,2024-10-17 11h49.14.939329 +0530,
50,c,6,2,26,2,,,,,74.52584699999716,,74.51121569999668,74.52584699999716,75.52591890000622,75.52591890000622,75.52591890000622,75.52591890000622,75.52591890000622,76.52569860000222,76.52569860000222,77.37524520000443,c,1,0.8433546999876853,None,760188,001,2024-10-17_11h49.05.642,sequential _learning,2024.1.5,None,2024-10-17 11h49.14.939329 +0530,
-150,z,6,3,27,3,,,,,77.39054029999534,,77.3764036000066,77.39054029999534,78.3901990000013,78.3901990000013,78.3901990000013,78.3901990000013,78.3901990000013,79.39002439999604,79.39002439999604,79.74070399999619,z,1,0.3400471000059042,None,760188,001,2024-10-17_11h49.05.642,sequential _learning,2024.1.5,None,2024-10-17 11h49.14.939329 +0530,
-50,x,7,0,28,0,,,,,79.75626439999905,,79.74159089999739,79.75626439999905,80.75539039999421,80.75539039999421,80.75539039999421,80.75539039999421,80.75539039999421,81.75525519999792,81.75525519999792,82.45520670000406,x,1,0.6833048999978928,None,760188,001,2024-10-17_11h49.05.642,sequential _learning,2024.1.5,None,2024-10-17 11h49.14.939329 +0530,
150,v,7,1,29,1,,,,,82.47048109999741,,82.45626289999927,82.47048109999741,83.469943899996,83.469943899996,83.469943899996,83.469943899996,83.469943899996,84.46954289999849,84.46954289999849,85.85346690000733,v,1,1.3676989999949,None,760188,001,2024-10-17_11h49.05.642,sequential _learning,2024.1.5,None,2024-10-17 11h49.14.939329 +0530,
50,c,7,2,30,2,,,,,85.86867090000305,,85.85457789999782,85.86867090000305,86.86837640000158,86.86837640000158,86.86837640000158,86.86837640000158,86.86837640000158,87.86732160000247,87.86732160000247,88.76787159999367,c,1,0.8928584000095725,None,760188,001,2024-10-17_11h49.05.642,sequential _learning,2024.1.5,None,2024-10-17 11h49.14.939329 +0530,
-150,z,7,3,31,3,,,,,88.78370749999885,,88.76862030000484,88.78370749999885,89.76625679999415,89.76625679999415,89.76625679999415,89.76625679999415,89.7832458000048,90.78219510000781,90.78219510000781,91.14996369999426,z,1,0.3503377000015462,None,760188,001,2024-10-17_11h49.05.642,sequential _learning,2024.1.5,None,2024-10-17 11h49.14.939329 +0530,
-50,x,8,0,32,0,,,,,91.16528850000759,,91.1506997999968,91.16528850000759,92.16470550000668,92.16470550000668,92.16470550000668,92.16470550000668,92.16470550000668,93.16427059999842,93.16427059999842,94.44732750000549,x,1,1.26957429999311,None,760188,001,2024-10-17_11h49.05.642,sequential _learning,2024.1.5,None,2024-10-17 11h49.14.939329 +0530,
150,v,8,1,33,1,,,,,94.46309770000516,,94.4480029999977,94.46309770000516,95.462326199995,95.462326199995,95.462326199995,95.462326199995,95.462326199995,96.46236469999712,96.46236469999712,97.32911210000748,v,1,0.8593714000016917,None,760188,001,2024-10-17_11h49.05.642,sequential _learning,2024.1.5,None,2024-10-17 11h49.14.939329 +0530,
50,c,8,2,34,2,,,,,97.34496030000446,,97.33026859999518,97.34496030000446,98.34410390000266,98.34410390000266,98.34410390000266,98.34410390000266,98.34410390000266,99.34375850000652,99.34375850000652,100.4781612999941,v,0,1.1296021999878576,None,760188,001,2024-10-17_11h49.05.642,sequential _learning,2024.1.5,None,2024-10-17 11h49.14.939329 +0530,
-150,z,8,3,35,3,,,,,100.49287170000025,,100.47894309999538,100.49287170000025,101.49200100000598,101.49200100000598,101.49200100000598,101.49200100000598,101.49200100000598,102.49134619999677,102.49134619999677,103.59280549999676,z,1,1.099926900002174,None,760188,001,2024-10-17_11h49.05.642,sequential _learning,2024.1.5,None,2024-10-17 11h49.14.939329 +0530,
-50,x,9,0,36,0,,,,,103.60749779999605,,103.59402659999614,103.60749779999605,104.60699670000758,104.60699670000758,104.60699670000758,104.60699670000758,104.60699670000758,105.60599480000383,105.60599480000383,106.55653309999616,x,1,0.9335705999983475,None,760188,001,2024-10-17_11h49.05.642,sequential _learning,2024.1.5,None,2024-10-17 11h49.14.939329 +0530,
150,v,9,1,37,1,,,,,106.57189110000036,,106.55792409999412,106.57189110000036,107.57160609999846,107.57160609999846,107.57160609999846,107.57160609999846,107.57160609999846,108.57106960000237,108.57106960000237,109.35758019999776,v,1,0.7725177999964217,None,760188,001,2024-10-17_11h49.05.642,sequential _learning,2024.1.5,None,2024-10-17 11h49.14.939329 +0530,
50,c,9,2,38,2,,,,,109.37076190000516,,109.35868499999924,109.37076190000516,110.3702581999969,110.3702581999969,110.3702581999969,110.3702581999969,110.3702581999969,111.36994859999686,111.36994859999686,112.05382559999998,c,1,0.6752730000007432,None,760188,001,2024-10-17_11h49.05.642,sequential _learning,2024.1.5,None,2024-10-17 11h49.14.939329 +0530,
-150,z,9,3,39,3,,,,,112.06889920000685,,112.05462209999678,112.06889920000685,113.06884680000076,113.06884680000076,113.06884680000076,113.06884680000076,113.06884680000076,114.06832560000475,114.06832560000475,114.95185290000518,z,1,0.8782667000050424,None,760188,001,2024-10-17_11h49.05.642,sequential _learning,2024.1.5,None,2024-10-17 11h49.14.939329 +0530,
-50,x,10,0,40,0,,,,,114.96690729999682,,114.95259830000577,114.96690729999682,115.96698610000021,115.96698610000021,115.96698610000021,115.96698610000021,115.96698610000021,116.96572619999642,116.96572619999642,117.96604410000145,x,1,0.9944710999989184,None,760188,001,2024-10-17_11h49.05.642,sequential _learning,2024.1.5,None,2024-10-17 11h49.14.939329 +0530,
150,v,10,1,41,1,,,,,117.98164379999798,,117.96679999999469,117.98164379999798,118.98140230000718,118.98140230000718,118.98140230000718,118.98140230000718,118.98140230000718,119.98075349999999,119.98075349999999,121.23038259999885,v,1,1.235734500005492,None,760188,001,2024-10-17_11h49.05.642,sequential _learning,2024.1.5,None,2024-10-17 11h49.14.939329 +0530,
50,c,10,2,42,2,,,,,121.2460499000008,,121.23110829999496,121.2460499000008,122.24601400000392,122.24601400000392,122.24601400000392,122.24601400000392,122.24601400000392,123.24523650000629,123.24523650000629,124.34543070000655,c,1,1.083693399996264,None,760188,001,2024-10-17_11h49.05.642,sequential _learning,2024.1.5,None,2024-10-17 11h49.14.939329 +0530,
-150,z,10,3,43,3,,,,,124.36095279999427,,124.34617499999877,124.36095279999427,125.36149559999467,125.36149559999467,125.36149559999467,125.36149559999467,125.36149559999467,126.35957040000358,126.35957040000358,127.55994479999936,z,1,1.1855483999970602,None,760188,001,2024-10-17_11h49.05.642,sequential _learning,2024.1.5,None,2024-10-17 11h49.14.939329 +0530,
-50,x,11,0,44,0,,,,,127.57545839999511,,127.56071720000182,127.57545839999511,128.57518319999508,128.57518319999508,128.57518319999508,128.57518319999508,128.57518319999508,129.57432590000099,129.57432590000099,130.47459430000163,x,1,0.8849339000007603,None,760188,001,2024-10-17_11h49.05.642,sequential _learning,2024.1.5,None,2024-10-17 11h49.14.939329 +0530,
150,v,11,1,45,1,,,,,130.49031589999504,,130.47535659999994,130.49031589999504,131.47379449999426,131.47379449999426,131.47379449999426,131.47379449999426,131.49018629999773,132.489207599996,132.489207599996,133.3232638000045,v,1,0.8283679000014672,None,760188,001,2024-10-17_11h49.05.642,sequential _learning,2024.1.5,None,2024-10-17 11h49.14.939329 +0530,
50,c,11,2,46,2,,,,,133.33827269999892,,133.32398460000695,133.33827269999892,134.33842109999387,134.33842109999387,134.33842109999387,134.33842109999387,134.33842109999387,135.33729189999576,135.33729189999576,135.9713133000041,c,1,0.62393780000275,None,760188,001,2024-10-17_11h49.05.642,sequential _learning,2024.1.5,None,2024-10-17 11h49.14.939329 +0530,
-150,z,11,3,47,3,,,,,135.98659909999697,,135.97217069999897,135.98659909999697,136.98693800000183,136.98693800000183,136.98693800000183,136.98693800000183,136.98693800000183,137.9867060999968,137.9867060999968,139.06936059999862,z,1,1.069430999996257,None,760188,001,2024-10-17_11h49.05.642,sequential _learning,2024.1.5,None,2024-10-17 11h49.14.939329 +0530,
-50,x,12,0,48,0,,,,,139.0851229999971,,139.07006280000496,139.0851229999971,140.08475189999444,140.08475189999444,140.08475189999444,140.08475189999444,140.08475189999444,141.08369790000143,141.08369790000143,141.80137939999986,x,1,0.7054693000100087,None,760188,001,2024-10-17_11h49.05.642,sequential _learning,2024.1.5,None,2024-10-17 11h49.14.939329 +0530,
150,v,12,1,49,1,,,,,141.81695350000518,,141.80213240000012,141.81695350000518,142.81631090000155,142.81631090000155,142.81631090000155,142.81631090000155,142.81631090000155,143.81510510000226,143.81510510000226,144.49993890000042,v,1,0.6833499999920605,None,760188,001,2024-10-17_11h49.05.642,sequential _learning,2024.1.5,None,2024-10-17 11h49.14.939329 +0530,
50,c,12,2,50,2,,,,,144.51478379999753,,144.50071649999882,144.51478379999753,145.5145332999964,145.5145332999964,145.5145332999964,145.5145332999964,145.5145332999964,146.51386880000064,146.51386880000064,147.3978844999947,c,1,0.8828500999952666,None,760188,001,2024-10-17_11h49.05.642,sequential _learning,2024.1.5,None,2024-10-17 11h49.14.939329 +0530,
-150,z,12,3,51,3,,,,,147.41307850000157,,147.39873090000765,147.41307850000157,148.41288040000654,148.41288040000654,148.41288040000654,148.41288040000654,148.41288040000654,149.41211990000738,149.41211990000738,150.01307430000452,z,1,0.5940287000121316,None,760188,001,2024-10-17_11h49.05.642,sequential _learning,2024.1.5,None,2024-10-17 11h49.14.939329 +0530,
-50,x,13,0,52,0,,,,,150.02831510000397,,150.01387189999514,150.02831510000397,151.02819090000412,151.02819090000412,151.02819090000412,151.02819090000412,151.02819090000412,152.02701780000643,152.02701780000643,153.4940709999937,x,1,1.462036299999454,None,760188,001,2024-10-17_11h49.05.642,sequential _learning,2024.1.5,None,2024-10-17 11h49.14.939329 +0530,
150,v,13,1,53,1,,,,,153.50883219999378,,153.49490259999584,153.50883219999378,154.50918370000727,154.50918370000727,154.50918370000727,154.50918370000727,154.50918370000727,155.50820840000233,155.50820840000233,156.27582819999952,v,1,0.7628728999989107,None,760188,001,2024-10-17_11h49.05.642,sequential _learning,2024.1.5,None,2024-10-17 11h49.14.939329 +0530,
50,c,13,2,54,2,,,,,156.2906820000062,,156.2766283999954,156.2906820000062,157.29055170000356,157.29055170000356,157.29055170000356,157.29055170000356,157.29055170000356,158.29026540000632,158.29026540000632,159.12367529999756,c,1,0.8250893999938853,None,760188,001,2024-10-17_11h49.05.642,sequential _learning,2024.1.5,None,2024-10-17 11h49.14.939329 +0530,
-150,z,13,3,55,3,,,,,159.13934180000797,,159.1245007999969,159.13934180000797,160.13852710000356,160.13852710000356,160.13852710000356,160.13852710000356,160.13852710000356,161.1377966,161.1377966,161.855475999997,z,1,0.708166500000516,None,760188,001,2024-10-17_11h49.05.642,sequential _learning,2024.1.5,None,2024-10-17 11h49.14.939329 +0530,
-50,x,14,0,56,0,,,,,161.8702811999974,,161.85652699999628,161.8702811999974,162.85361400000693,162.85361400000693,162.85361400000693,162.85361400000693,162.87010519999603,163.86949050000112,163.86949050000112,164.6198241999955,x,1,0.7334553000109736,None,760188,001,2024-10-17_11h49.05.642,sequential _learning,2024.1.5,None,2024-10-17 11h49.14.939329 +0530,
150,v,14,1,57,1,,,,,164.63528210000368,,164.6206560999999,164.63528210000368,165.63514899999427,165.63514899999427,165.63514899999427,165.63514899999427,165.63514899999427,166.63439249999647,166.63439249999647,167.4681394000072,v,1,0.8264593000058085,None,760188,001,2024-10-17_11h49.05.642,sequential _learning,2024.1.5,None,2024-10-17 11h49.14.939329 +0530,
50,c,14,2,58,2,,,,,167.48378260000027,,167.46920110000065,167.48378260000027,168.48340300000564,168.48340300000564,168.48340300000564,168.48340300000564,168.48340300000564,169.48274160000437,169.48274160000437,170.1833023000072,c,1,0.6922109000006458,None,760188,001,2024-10-17_11h49.05.642,sequential _learning,2024.1.5,None,2024-10-17 11h49.14.939329 +0530,
-150,z,14,3,59,3,,,,,170.1984025999991,,170.18413110000256,170.1984025999991,171.19804420000582,171.19804420000582,171.19804420000582,171.19804420000582,171.19804420000582,172.19737500000338,172.19737500000338,172.9982403000031,z,1,0.7859103999944637,None,760188,001,2024-10-17_11h49.05.642,sequential _learning,2024.1.5,None,2024-10-17 11h49.14.939329 +0530,
-50,x,15,0,60,0,,,,,173.0131978999998,,172.99903979999362,173.0131978999998,174.01354670000728,174.01354670000728,174.01354670000728,174.01354670000728,174.01354670000728,175.01257429999532,175.01257429999532,175.8464246000076,x,1,0.831697500005248,None,760188,001,2024-10-17_11h49.05.642,sequential _learning,2024.1.5,None,2024-10-17 11h49.14.939329 +0530,
150,v,15,1,61,1,,,,,175.86147360000177,,175.84714660000463,175.86147360000177,176.86132739999448,176.86132739999448,176.86132739999448,176.86132739999448,176.86132739999448,177.86057069999515,177.86057069999515,178.74386450000748,v,1,0.8714607000001706,None,760188,001,2024-10-17_11h49.05.642,sequential _learning,2024.1.5,None,2024-10-17 11h49.14.939329 +0530,
50,c,15,2,62,2,,,,,178.7595536000008,,178.74465940000664,178.7595536000008,179.74308670000755,179.74308670000755,179.74308670000755,179.74308670000755,179.75975359999575,180.75854670000263,180.75854670000263,181.7089896999969,c,1,0.9386980999988737,None,760188,001,2024-10-17_11h49.05.642,sequential _learning,2024.1.5,None,2024-10-17 11h49.14.939329 +0530,
-150,z,15,3,63,3,,,,,181.72447580000153,,181.70976209999935,181.72447580000153,182.72445520000474,182.72445520000474,182.72445520000474,182.72445520000474,182.72445520000474,183.72351999999955,183.72351999999955,184.5407583000051,z,1,0.8103417999955127,None,760188,001,2024-10-17_11h49.05.642,sequential _learning,2024.1.5,None,2024-10-17 11h49.14.939329 +0530,
-50,x,16,0,64,0,,,,,184.55588509999507,,184.54159829999844,184.55588509999507,185.55632170000172,185.55632170000172,185.55632170000172,185.55632170000172,185.55632170000172,186.55498980000266,186.55498980000266,187.37243849999504,x,1,0.8109401999972761,None,760188,001,2024-10-17_11h49.05.642,sequential _learning,2024.1.5,None,2024-10-17 11h49.14.939329 +0530,
150,v,16,1,65,1,,,,,187.38724199999706,,187.37345640000422,187.38724199999706,188.3876248000015,188.3876248000015,188.3876248000015,188.3876248000015,188.3876248000015,189.38656790000095,189.38656790000095,190.08724190000794,v,1,0.6890807000017958,None,760188,001,2024-10-17_11h49.05.642,sequential _learning,2024.1.5,None,2024-10-17 11h49.14.939329 +0530,
50,c,16,2,66,2,,,,,190.10248000000138,,190.08804750000127,190.10248000000138,191.10242979999748,191.10242979999748,191.10242979999748,191.10242979999748,191.10242979999748,192.1013438999944,192.1013438999944,192.85324440000113,c,1,0.7415868000098271,None,760188,001,2024-10-17_11h49.05.642,sequential _learning,2024.1.5,None,2024-10-17 11h49.14.939329 +0530,
-150,z,16,3,67,3,,,,,192.86806370000704,,192.85411319999548,192.86806370000704,193.86690670000098,193.86690670000098,193.86690670000098,193.86690670000098,193.86690670000098,194.8660486000008,194.8660486000008,195.58375200000592,z,1,0.7096637000067858,None,760188,001,2024-10-17_11h49.05.642,sequential _learning,2024.1.5,None,2024-10-17 11h49.14.939329 +0530,
-50,x,17,0,68,0,,,,,195.599046000003,,195.58445900000515,195.599046000003,196.5989993999974,196.5989993999974,196.5989993999974,196.5989993999974,196.5989993999974,197.59806279999611,197.59806279999611,198.2820939999947,x,1,0.6710699999966891,None,760188,001,2024-10-17_11h49.05.642,sequential _learning,2024.1.5,None,2024-10-17 11h49.14.939329 +0530,
150,v,17,1,69,1,,,,,198.29743239999516,,198.28289329999825,198.29743239999516,199.29850059999444,199.29850059999444,199.29850059999444,199.29850059999444,199.29850059999444,200.29607830000168,200.29607830000168,201.03053469999577,v,1,0.7323940999922343,None,760188,001,2024-10-17_11h49.05.642,sequential _learning,2024.1.5,None,2024-10-17 11h49.14.939329 +0530,
50,c,17,2,70,2,,,,,201.0459489000059,,201.0313593000028,201.0459489000059,202.04568039999867,202.04568039999867,202.04568039999867,202.04568039999867,202.04568039999867,203.0444598000031,203.0444598000031,203.72868679999374,c,1,0.6826945999928284,None,760188,001,2024-10-17_11h49.05.642,sequential _learning,2024.1.5,None,2024-10-17 11h49.14.939329 +0530,
-150,z,17,3,71,3,,,,,203.74389789999987,,203.7294580000016,203.74389789999987,204.74403640000673,204.74403640000673,204.74403640000673,204.74403640000673,204.74403640000673,205.74265339999693,205.74265339999693,206.41012590000173,z,1,0.6628002999932505,None,760188,001,2024-10-17_11h49.05.642,sequential _learning,2024.1.5,None,2024-10-17 11h49.14.939329 +0530,
-50,x,18,0,72,0,,,,,206.425413200006,,206.4110107000015,206.425413200006,207.42574380000588,207.42574380000588,207.42574380000588,207.42574380000588,207.42574380000588,208.42460139999457,208.42460139999457,209.57442610000726,x,1,1.1353994999954011,None,760188,001,2024-10-17_11h49.05.642,sequential _learning,2024.1.5,None,2024-10-17 11h49.14.939329 +0530,
150,v,18,1,73,1,,,,,209.59054540000216,,209.5751639999944,209.59054540000216,210.5731350999995,210.5731350999995,210.5731350999995,210.5731350999995,210.5904765000014,211.58969170000637,211.58969170000637,212.4226239999989,v,1,0.8308604000048945,None,760188,001,2024-10-17_11h49.05.642,sequential _learning,2024.1.5,None,2024-10-17 11h49.14.939329 +0530,
50,c,18,2,74,2,,,,,212.43822500000533,,212.42343670000264,212.43822500000533,213.43869429999904,213.43869429999904,213.43869429999904,213.43869429999904,213.43869429999904,214.43748710000364,214.43748710000364,215.121404599995,c,1,0.6714765000069747,None,760188,001,2024-10-17_11h49.05.642,sequential _learning,2024.1.5,None,2024-10-17 11h49.14.939329 +0530,
-150,z,18,3,75,3,,,,,215.13650740000594,,215.12213350000093,215.13650740000594,216.1368097999948,216.1368097999948,216.1368097999948,216.1368097999948,216.1368097999948,217.13603189999412,217.13603189999412,217.80306619999465,z,1,0.6554749000060838,None,760188,001,2024-10-17_11h49.05.642,sequential _learning,2024.1.5,None,2024-10-17 11h49.14.939329 +0530,
-50,x,19,0,76,0,,,,,217.8182897999941,,217.80381349999516,217.8182897999941,218.81832069999655,218.81832069999655,218.81832069999655,218.81832069999655,218.81832069999655,219.81744060000347,219.81744060000347,220.6007402999967,x,1,0.7671267000114312,None,760188,001,2024-10-17_11h49.05.642,sequential _learning,2024.1.5,None,2024-10-17 11h49.14.939329 +0530,
150,v,19,1,77,1,,,,,220.61667869999656,,220.60157349999645,220.61667869999656,221.61637889999838,221.61637889999838,221.61637889999838,221.61637889999838,221.61637889999838,222.61559190000116,222.61559190000116,223.35021950000373,v,1,0.7328513999964343,None,760188,001,2024-10-17_11h49.05.642,sequential _learning,2024.1.5,None,2024-10-17 11h49.14.939329 +0530,
50,c,19,2,78,2,,,,,223.36511400000018,,223.35112160000426,223.36511400000018,224.36459909999394,224.36459909999394,224.36459909999394,224.36459909999394,224.36459909999394,225.3638326999935,225.3638326999935,226.11394999999902,c,1,0.7346369000006234,None,760188,001,2024-10-17_11h49.05.642,sequential _learning,2024.1.5,None,2024-10-17 11h49.14.939329 +0530,
-150,z,19,3,79,3,,,,,226.12960929999826,,226.11468090000562,226.12960929999826,227.11305990000255,227.11305990000255,227.11305990000255,227.11305990000255,227.12966950000555,228.12851239999873,228.12851239999873,228.87996449999628,z,1,0.7415027000097325,None,760188,001,2024-10-17_11h49.05.642,sequential _learning,2024.1.5,None,2024-10-17 11h49.14.939329 +0530,
-50,x,20,0,80,0,,,,,228.89511969999876,,228.88112679999904,228.89511969999876,229.89479089999804,229.89479089999804,229.89479089999804,229.89479089999804,229.89479089999804,230.8938610000041,230.8938610000041,231.6604318000027,x,1,0.7503705999988597,None,760188,001,2024-10-17_11h49.05.642,sequential _learning,2024.1.5,None,2024-10-17 11h49.14.939329 +0530,
150,v,20,1,81,1,,,,,231.67596870000125,,231.66119400000025,231.67596870000125,232.6594968999998,232.6594968999998,232.6594968999998,232.6594968999998,232.67616230000567,233.675158500002,233.675158500002,234.37626309999905,v,1,0.6945580000028713,None,760188,001,2024-10-17_11h49.05.642,sequential _learning,2024.1.5,None,2024-10-17 11h49.14.939329 +0530,
50,c,20,2,82,2,,,,,234.39179009999498,,234.37745630000427,234.39179009999498,235.39133270000457,235.39133270000457,235.39133270000457,235.39133270000457,235.39133270000457,236.38979689999542,236.38979689999542,237.25691290000395,c,1,0.8520748000009917,None,760188,001,2024-10-17_11h49.05.642,sequential _learning,2024.1.5,None,2024-10-17 11h49.14.939329 +0530,
-150,z,20,3,83,3,,,,,237.27288879999833,,237.25770499999635,237.27288879999833,238.27240729999903,238.27240729999903,238.27240729999903,238.27240729999903,238.27240729999903,239.27160079999885,239.27160079999885,240.00529889999598,z,1,0.7202819999947678,None,760188,001,2024-10-17_11h49.05.642,sequential _learning,2024.1.5,None,2024-10-17 11h49.14.939329 +0530,
-50,x,21,0,84,0,,,,,240.0206407000078,,240.00612220000767,240.0206407000078,241.0208058999997,241.0208058999997,241.0208058999997,241.0208058999997,241.0208058999997,242.02008159999968,242.02008159999968,242.82103340000322,x,1,0.7997849999956088,None,760188,001,2024-10-17_11h49.05.642,sequential _learning,2024.1.5,None,2024-10-17 11h49.14.939329 +0530,
150,v,21,1,85,1,,,,,242.83590770000592,,242.82181259999925,242.83590770000592,243.8354551999946,243.8354551999946,243.8354551999946,243.8354551999946,243.8354551999946,244.8347677999991,244.8347677999991,245.55265189999773,v,1,0.7021263999922667,None,760188,001,2024-10-17_11h49.05.642,sequential _learning,2024.1.5,None,2024-10-17 11h49.14.939329 +0530,
50,c,21,2,86,2,,,,,245.56761260000349,,245.55371639999794,245.56761260000349,246.56725649999862,246.56725649999862,246.56725649999862,246.56725649999862,246.56725649999862,247.56624759999977,247.56624759999977,248.1833081000077,c,1,0.6088549999985844,None,760188,001,2024-10-17_11h49.05.642,sequential _learning,2024.1.5,None,2024-10-17 11h49.14.939329 +0530,
-150,z,21,3,87,3,,,,,248.19906519999495,,248.18403540000145,248.19906519999495,249.1827045999962,249.1827045999962,249.1827045999962,249.1827045999962,249.19874870000058,250.19803800000227,250.19803800000227,250.9484431000019,z,1,0.7453611999953864,None,760188,001,2024-10-17_11h49.05.642,sequential _learning,2024.1.5,None,2024-10-17 11h49.14.939329 +0530,
-50,x,22,0,88,0,,,,,250.9637611000071,,250.94920309999725,250.9637611000071,251.96374269999797,251.96374269999797,251.96374269999797,251.96374269999797,251.96374269999797,252.96286100000725,252.96286100000725,253.76343020000786,x,1,0.7898247999983141,None,760188,001,2024-10-17_11h49.05.642,sequential _learning,2024.1.5,None,2024-10-17 11h49.14.939329 +0530,
150,v,22,1,89,1,,,,,253.7786252000078,,253.76421049999772,253.7786252000078,254.77873970000655,254.77873970000655,254.77873970000655,254.77873970000655,254.77873970000655,255.77795750000223,255.77795750000223,256.562402800002,v,1,0.7689119999995455,None,760188,001,2024-10-17_11h49.05.642,sequential _learning,2024.1.5,None,2024-10-17 11h49.14.939329 +0530,
50,c,22,2,90,2,,,,,256.5773257999972,,256.5631205999962,256.5773257999972,257.5763991999993,257.5763991999993,257.5763991999993,257.5763991999993,257.5763991999993,258.5761167000019,258.5761167000019,259.3597000000009,c,1,0.7691774999984773,None,760188,001,2024-10-17_11h49.05.642,sequential _learning,2024.1.5,None,2024-10-17 11h49.14.939329 +0530,
-150,z,22,3,91,3,,,,,259.3751237999968,,259.3604803000053,259.3751237999968,260.3754520000075,260.3754520000075,260.3754520000075,260.3754520000075,260.3754520000075,261.3742607000022,261.3742607000022,262.19145169999683,z,1,0.815278699999908,None,760188,001,2024-10-17_11h49.05.642,sequential _learning,2024.1.5,None,2024-10-17 11h49.14.939329 +0530,
-50,x,23,0,92,0,,,,,262.206680999996,,262.1922001000057,262.206680999996,263.2063166000007,263.2063166000007,263.2063166000007,263.2063166000007,263.2063166000007,264.2063519000076,264.2063519000076,264.8399533000047,x,1,0.6162391999969259,None,760188,001,2024-10-17_11h49.05.642,sequential _learning,2024.1.5,None,2024-10-17 11h49.14.939329 +0530,
150,v,23,1,93,1,,,,,264.8552914000029,,264.8406481999991,264.8552914000029,265.8548143999942,265.8548143999942,265.8548143999942,265.8548143999942,265.8548143999942,266.8541647999955,266.8541647999955,267.15478569999686,v,1,0.29392849998839665,None,760188,001,2024-10-17_11h49.05.642,sequential _learning,2024.1.5,None,2024-10-17 11h49.14.939329 +0530,
50,c,23,2,94,2,,,,,267.16997560000164,,267.15554439999687,267.16997560000164,268.1699806999968,268.1699806999968,268.1699806999968,268.1699806999968,268.1699806999968,269.1691842,269.1691842,269.4534182000061,c,1,0.2738209000090137,None,760188,001,2024-10-17_11h49.05.642,sequential _learning,2024.1.5,None,2024-10-17 11h49.14.939329 +0530,
-150,z,23,3,95,3,,,,,269.46888780000154,,269.4543330000015,269.46888780000154,270.4687172999984,270.4687172999984,270.4687172999984,270.4687172999984,270.4687172999984,271.46829449999495,271.46829449999495,272.2517230999947,z,1,0.778126399993198,None,760188,001,2024-10-17_11h49.05.642,sequential _learning,2024.1.5,None,2024-10-17 11h49.14.939329 +0530,
-50,x,24,0,96,0,,,,,272.2672737999965,,272.25269059999846,272.2672737999965,273.2669068999967,273.2669068999967,273.2669068999967,273.2669068999967,273.2669068999967,274.266048400008,274.266048400008,275.58288390000234,x,1,1.3006594000034966,None,760188,001,2024-10-17_11h49.05.642,sequential _learning,2024.1.5,None,2024-10-17 11h49.14.939329 +0530,
150,v,24,1,97,1,,,,,275.5982134000078,,275.5836563000048,275.5982134000078,276.5981017000013,276.5981017000013,276.5981017000013,276.5981017000013,276.5981017000013,277.59798550000414,277.59798550000414,278.499250199995,v,1,0.8958237000042573,None,760188,001,2024-10-17_11h49.05.642,sequential _learning,2024.1.5,None,2024-10-17 11h49.14.939329 +0530,
50,c,24,2,98,2,,,,,278.513584100001,,278.50026840000646,278.513584100001,279.5136053000024,279.5136053000024,279.5136053000024,279.5136053000024,279.5136053000024,280.51215769999544,280.51215769999544,281.3293241000065,c,1,0.8024845000036294,None,760188,001,2024-10-17_11h49.05.642,sequential _learning,2024.1.5,None,2024-10-17 11h49.14.939329 +0530,
-150,z,24,3,99,3,,,,,281.34469450000324,,281.330057500003,281.34469450000324,282.3442278000002,282.3442278000002,282.3442278000002,282.3442278000002,282.3442278000002,283.3436875000043,283.3436875000043,284.3277711999981,z,1,0.9790916000056313,None,760188,001,2024-10-17_11h49.05.642,sequential _learning,2024.1.5,None,2024-10-17 11h49.14.939329 +0530,
-50,x,25,0,100,0,,,,,284.3427832000016,,284.3284830000048,284.3427832000016,285.34281650000776,285.34281650000776,285.34281650000776,285.34281650000776,285.34281650000776,286.3419981000043,286.3419981000043,287.17524100000446,x,1,0.8264090999873588,None,760188,001,2024-10-17_11h49.05.642,sequential _learning,2024.1.5,None,2024-10-17 11h49.14.939329 +0530,
150,v,25,1,101,1,,,,,287.19068280000647,,287.1759932999994,287.19068280000647,288.1907388999971,288.1907388999971,288.1907388999971,288.1907388999971,288.1907388999971,289.1900963999942,289.1900963999942,289.50831160000234,v,1,0.3028298000135692,None,760188,001,2024-10-17_11h49.05.642,sequential _learning,2024.1.5,None,2024-10-17 11h49.14.939329 +0530,
50,c,25,2,102,2,,,,,289.52301279999665,,289.50909469999897,289.52301279999665,290.5228841000062,290.5228841000062,290.5228841000062,290.5228841000062,290.5228841000062,291.5218922000058,291.5218922000058,291.82269899999665,c,1,0.2984699999942677,None,760188,001,2024-10-17_11h49.05.642,sequential _learning,2024.1.5,None,2024-10-17 11h49.14.939329 +0530,
-150,z,25,3,103,3,,,,,291.8378238000005,,291.82349120000436,291.8378238000005,292.83853760000784,292.83853760000784,292.83853760000784,292.83853760000784,292.83853760000784,293.83723720000125,293.83723720000125,294.15468890000193,z,1,0.3127791000006255,None,760188,001,2024-10-17_11h49.05.642,sequential _learning,2024.1.5,None,2024-10-17 11h49.14.939329 +0530,
-50,x,26,0,104,0,,,,,294.16965539999364,,294.1555787999969,294.16965539999364,295.1697795999935,295.1697795999935,295.1697795999935,295.1697795999935,295.1697795999935,296.16865799999505,296.16865799999505,296.7195907999994,x,1,0.5451846999931149,None,760188,001,2024-10-17_11h49.05.642,sequential _learning,2024.1.5,None,2024-10-17 11h49.14.939329 +0530,
150,v,26,1,105,1,,,,,296.7347774999944,,296.7204023999948,296.7347774999944,297.7357284000027,297.7357284000027,297.7357284000027,297.7357284000027,297.7357284000027,298.7337666999956,298.7337666999956,299.3179184000037,v,1,0.581616399998893,None,760188,001,2024-10-17_11h49.05.642,sequential _learning,2024.1.5,None,2024-10-17 11h49.14.939329 +0530,
50,c,26,2,106,2,,,,,299.3331332999951,,299.3185763000074,299.3331332999951,300.3327816999954,300.3327816999954,300.3327816999954,300.3327816999954,300.3327816999954,301.33216239999456,301.33216239999456,301.66639650000434,c,1,0.3202455999999074,None,760188,001,2024-10-17_11h49.05.642,sequential _learning,2024.1.5,None,2024-10-17 11h49.14.939329 +0530,
-150,z,26,3,107,3,,,,,301.6818442999938,,301.66720739999437,301.6818442999938,302.6823497000005,302.6823497000005,302.6823497000005,302.6823497000005,302.6823497000005,303.68044250000094,303.68044250000094,303.99857599999814,z,1,0.3158058999979403,None,760188,001,2024-10-17_11h49.05.642,sequential _learning,2024.1.5,None,2024-10-17 11h49.14.939329 +0530,
-50,x,27,0,108,0,,,,,304.01361850000103,,303.9993592999963,304.01361850000103,305.013644000006,305.013644000006,305.013644000006,305.013644000006,305.013644000006,306.01318520000495,306.01318520000495,306.31358260000707,x,1,0.2985266000032425,None,760188,001,2024-10-17_11h49.05.642,sequential _learning,2024.1.5,None,2024-10-17 11h49.14.939329 +0530,
150,v,27,1,109,1,,,,,306.32862519999617,,306.3144028999959,306.32862519999617,307.3286189000064,307.3286189000064,307.3286189000064,307.3286189000064,307.3286189000064,308.32762199999706,308.32762199999706,308.74578060000204,v,1,0.4157848000031663,None,760188,001,2024-10-17_11h49.05.642,sequential _learning,2024.1.5,None,2024-10-17 11h49.14.939329 +0530,
50,c,27,2,110,2,,,,,308.7605423000059,,308.74658869999985,308.7605423000059,309.7615128000034,309.7615128000034,309.7615128000034,309.7615128000034,309.7615128000034,310.75969809999515,310.75969809999515,311.22648389999813,c,1,0.4576265999930911,None,760188,001,2024-10-17_11h49.05.642,sequential _learning,2024.1.5,None,2024-10-17 11h49.14.939329 +0530,
-150,z,27,3,111,3,,,,,311.24233009999443,,311.227203500006,311.24233009999443,312.2256436000025,312.2256436000025,312.2256436000025,312.2256436000025,312.24231279999367,313.2412396,313.2412396,314.0083835999976,z,1,0.7579054000088945,None,760188,001,2024-10-17_11h49.05.642,sequential _learning,2024.1.5,None,2024-10-17 11h49.14.939329 +0530,
-50,x,28,0,112,0,,,,,314.023941499996,,314.009172399994,314.023941499996,315.02348150000034,315.02348150000034,315.02348150000034,315.02348150000034,315.02348150000034,316.0232812000031,316.0232812000031,316.523571800004,x,1,0.4886893999937456,None,760188,001,2024-10-17_11h49.05.642,sequential _learning,2024.1.5,None,2024-10-17 11h49.14.939329 +0530,
150,v,28,1,113,1,,,,,316.5389756999939,,316.5244290999981,316.5389756999939,317.5388940999983,317.5388940999983,317.5388940999983,317.5388940999983,317.5388940999983,318.5380865000043,318.5380865000043,318.85537479999766,v,1,0.3034006999951089,None,760188,001,2024-10-17_11h49.05.642,sequential _learning,2024.1.5,None,2024-10-17 11h49.14.939329 +0530,
50,c,28,2,114,2,,,,,318.8707202000078,,318.85611740000604,318.8707202000078,319.8709780000063,319.8709780000063,319.8709780000063,319.8709780000063,319.8709780000063,320.8699629000039,320.8699629000039,321.4874235000025,c,1,0.6101981999963755,None,760188,001,2024-10-17_11h49.05.642,sequential _learning,2024.1.5,None,2024-10-17 11h49.14.939329 +0530,
-150,z,28,3,115,3,,,,,321.5023022999958,,321.4881636000064,321.5023022999958,322.50277520000236,322.50277520000236,322.50277520000236,322.50277520000236,322.50277520000236,323.5013312999945,323.5013312999945,323.802631700004,z,1,0.29959329999110196,None,760188,001,2024-10-17_11h49.05.642,sequential _learning,2024.1.5,None,2024-10-17 11h49.14.939329 +0530,
-50,x,29,0,116,0,,,,,323.81764459999977,,323.80347769999935,323.81764459999977,324.8175087999989,324.8175087999989,324.8175087999989,324.8175087999989,324.8175087999989,325.81647489999887,325.81647489999887,326.1176953999966,x,1,0.2845374000025913,None,760188,001,2024-10-17_11h49.05.642,sequential _learning,2024.1.5,None,2024-10-17 11h49.14.939329 +0530,
150,v,29,1,117,1,,,,,326.13272439999855,,326.1184693999967,326.13272439999855,327.13243680000596,327.13243680000596,327.13243680000596,327.13243680000596,327.13243680000596,328.13228170000366,328.13228170000366,328.5332944999973,v,1,0.3952035000111209,None,760188,001,2024-10-17_11h49.05.642,sequential _learning,2024.1.5,None,2024-10-17 11h49.14.939329 +0530,
50,c,29,2,118,2,,,,,328.5481829000055,,328.53409349999856,328.5481829000055,329.54804120000335,329.54804120000335,329.54804120000335,329.54804120000335,329.54804120000335,330.5471782999957,330.5471782999957,331.18069160000596,c,1,0.6279254999972181,None,760188,001,2024-10-17_11h49.05.642,sequential _learning,2024.1.5,None,2024-10-17 11h49.14.939329 +0530,
-150,z,29,3,119,3,,,,,331.19618159999663,,331.18174709999585,331.19618159999663,332.17973230000644,332.17973230000644,332.17973230000644,332.17973230000644,332.1966889000032,333.1953727999935,333.1953727999935,333.5629595000064,z,1,0.3611742999928538,None,760188,001,2024-10-17_11h49.05.642,sequential _learning,2024.1.5,None,2024-10-17 11h49.14.939329 +0530,
-50,x,30,0,120,0,,,,,333.5781199000048,,333.5637069000077,333.5781199000048,334.5776867999957,334.5776867999957,334.5776867999957,334.5776867999957,334.5776867999957,335.57728260000295,335.57728260000295,335.9785525000043,x,1,0.4000287999951979,None,760188,001,2024-10-17_11h49.05.642,sequential _learning,2024.1.5,None,2024-10-17 11h49.14.939329 +0530,
150,v,30,1,121,1,,,,,335.9933260999969,,335.9793898000062,335.9933260999969,336.9934146000014,336.9934146000014,336.9934146000014,336.9934146000014,336.9934146000014,337.99226060000365,337.99226060000365,338.3264754999982,v,1,0.3222782999946503,None,760188,001,2024-10-17_11h49.05.642,sequential _learning,2024.1.5,None,2024-10-17 11h49.14.939329 +0530,
50,c,30,2,122,2,,,,,338.341625800007,,338.3272894999973,338.341625800007,339.34245250000095,339.34245250000095,339.34245250000095,339.34245250000095,339.34245250000095,340.3405921999947,340.3405921999947,340.6919291999948,c,1,0.34349279999150895,None,760188,001,2024-10-17_11h49.05.642,sequential _learning,2024.1.5,None,2024-10-17 11h49.14.939329 +0530,
-150,z,30,3,123,3,,,,,340.7069269000058,,340.69288859999506,340.7069269000058,341.70687069999985,341.70687069999985,341.70687069999985,341.70687069999985,341.70687069999985,342.70592609999585,342.70592609999585,342.97373110000626,z,1,0.25571329999365844,None,760188,001,2024-10-17_11h49.05.642,sequential _learning,2024.1.5,None,2024-10-17 11h49.14.939329 +0530,
-50,x,31,0,124,0,,,,,342.9888690999942,,342.9744647000043,342.9888690999942,343.9896418999997,343.9896418999997,343.9896418999997,343.9896418999997,343.9896418999997,344.98797339999874,344.98797339999874,345.28909629999544,x,1,0.2966488000092795,None,760188,001,2024-10-17_11h49.05.642,sequential _learning,2024.1.5,None,2024-10-17 11h49.14.939329 +0530,
150,v,31,1,125,1,,,,,345.30389670000295,,345.28996530000586,345.30389670000295,346.3038765999954,346.3038765999954,346.3038765999954,346.3038765999954,346.3038765999954,347.30326349999814,347.30326349999814,347.7208641000034,v,1,0.4162877000053413,None,760188,001,2024-10-17_11h49.05.642,sequential _learning,2024.1.5,None,2024-10-17 11h49.14.939329 +0530,
50,c,31,2,126,2,,,,,347.73569889999635,,347.72169429999485,347.73569889999635,348.73565030000464,348.73565030000464,348.73565030000464,348.73565030000464,348.73565030000464,349.7350015999982,349.7350015999982,350.2019025000045,c,1,0.45298770000226796,None,760188,001,2024-10-17_11h49.05.642,sequential _learning,2024.1.5,None,2024-10-17 11h49.14.939329 +0530,
-150,z,31,3,127,3,,,,,350.2176973000023,,350.202664299999,350.2176973000023,351.21739669999806,351.21739669999806,351.21739669999806,351.21739669999806,351.21739669999806,352.2171748999972,352.2171748999972,352.50123550000717,z,1,0.2788697000069078,None,760188,001,2024-10-17_11h49.05.642,sequential _learning,2024.1.5,None,2024-10-17 11h49.14.939329 +0530,
-50,x,32,0,128,0,,,,,352.516045700002,,352.5024070000072,352.516045700002,353.51632720000634,353.51632720000634,353.51632720000634,353.51632720000634,353.51632720000634,354.5147428000055,354.5147428000055,354.85048530000495,x,1,0.32048070000018924,None,760188,001,2024-10-17_11h49.05.642,sequential _learning,2024.1.5,None,2024-10-17 11h49.14.939329 +0530,
150,v,32,1,129,1,,,,,354.8650101999956,,354.8516926000011,354.8650101999956,355.86437450000085,355.86437450000085,355.86437450000085,355.86437450000085,355.86437450000085,356.8638618999976,356.8638618999976,357.21422110000276,v,1,0.336835299996892,None,760188,001,2024-10-17_11h49.05.642,sequential _learning,2024.1.5,None,2024-10-17 11h49.14.939329 +0530,
50,c,32,2,130,2,,,,,357.2302026999969,,357.21500290000404,357.2302026999969,358.22919600000023,358.22919600000023,358.22919600000023,358.22919600000023,358.22919600000023,359.22875199999544,359.22875199999544,360.562388499995,c,1,1.3172095000045374,None,760188,001,2024-10-17_11h49.05.642,sequential _learning,2024.1.5,None,2024-10-17 11h49.14.939329 +0530,
-150,z,32,3,131,3,,,,,360.5775758999953,,360.5631483000034,360.5775758999953,361.57750379999925,361.57750379999925,361.57750379999925,361.57750379999925,361.57750379999925,362.57657809999364,362.57657809999364,362.89566559999366,z,1,0.3137694000033662,None,760188,001,2024-10-17_11h49.05.642,sequential _learning,2024.1.5,None,2024-10-17 11h49.14.939329 +0530,
-50,x,33,0,132,0,,,,,362.9101403999957,,362.8968739999982,362.9101403999957,363.90928839999833,363.90928839999833,363.90928839999833,363.90928839999833,363.90928839999833,364.90875990000495,364.90875990000495,365.2255506000074,x,1,0.30086420000588987,None,760188,001,2024-10-17_11h49.05.642,sequential _learning,2024.1.5,None,2024-10-17 11h49.14.939329 +0530,
150,v,33,1,133,1,,,,,365.2415101999941,,365.22642449999694,365.2415101999941,366.22452099999646,366.22452099999646,366.22452099999646,366.22452099999646,366.2418828999944,367.24030530000164,367.24030530000164,367.70821799999976,v,1,0.46689019999757875,None,760188,001,2024-10-17_11h49.05.642,sequential _learning,2024.1.5,None,2024-10-17 11h49.14.939329 +0530,
50,c,33,2,134,2,,,,,367.72310489999654,,367.70898589999706,367.72310489999654,368.72320639999816,368.72320639999816,368.72320639999816,368.72320639999816,368.72320639999816,369.7219871999987,369.7219871999987,370.5895287000021,c,1,0.8596651999978349,None,760188,001,2024-10-17_11h49.05.642,sequential _learning,2024.1.5,None,2024-10-17 11h49.14.939329 +0530,
-150,z,33,3,135,3,,,,,370.60469740000553,,370.5903025000007,370.60469740000553,371.6043473000027,371.6043473000027,371.6043473000027,371.6043473000027,371.6043473000027,372.6036160999938,372.6036160999938,373.4716341000021,z,1,0.8646580000058748,None,760188,001,2024-10-17_11h49.05.642,sequential _learning,2024.1.5,None,2024-10-17 11h49.14.939329 +0530,
-50,x,34,0,136,0,,,,,373.48608519999834,,373.47238720000314,373.48608519999834,374.4865538000013,374.4865538000013,374.4865538000013,374.4865538000013,374.4865538000013,375.48518930000137,375.48518930000137,376.302502999999,x,1,0.8158799999946496,None,760188,001,2024-10-17_11h49.05.642,sequential _learning,2024.1.5,None,2024-10-17 11h49.14.939329 +0530,
150,v,34,1,137,1,,,,,376.3181182999979,,376.30340859999706,376.3181182999979,377.31783640000504,377.31783640000504,377.31783640000504,377.31783640000504,377.31783640000504,378.31668800000625,378.31668800000625,379.4684866000025,v,1,1.14633909999975,None,760188,001,2024-10-17_11h49.05.642,sequential _learning,2024.1.5,None,2024-10-17 11h49.14.939329 +0530,
50,c,34,2,138,2,,,,,379.4831375000067,,379.4697542000067,379.4831375000067,380.482345299999,380.482345299999,380.482345299999,380.482345299999,380.482345299999,381.48154170000635,381.48154170000635,381.83334240000113,c,1,0.3412126999901375,None,760188,001,2024-10-17_11h49.05.642,sequential _learning,2024.1.5,None,2024-10-17 11h49.14.939329 +0530,
-150,z,34,3,139,3,,,,,381.84822119999444,,381.8345272000006,381.84822119999444,382.84690760000376,382.84690760000376,382.84690760000376,382.84690760000376,382.84690760000376,383.8466950000002,383.8466950000002,384.7467200999963,z,1,0.8849470999994082,None,760188,001,2024-10-17_11h49.05.642,sequential _learning,2024.1.5,None,2024-10-17 11h49.14.939329 +0530,
-50,x,35,0,140,0,,,,,384.7624267000065,,384.7475246999966,384.7624267000065,385.74579440000525,385.74579440000525,385.74579440000525,385.74579440000525,385.7625721000077,386.76108250000107,386.76108250000107,387.79534070000227,x,1,1.0311663000029512,None,760188,001,2024-10-17_11h49.05.642,sequential _learning,2024.1.5,None,2024-10-17 11h49.14.939329 +0530,
150,v,35,1,141,1,,,,,387.81046870000137,,387.7962708999985,387.81046870000137,388.81022929999745,388.81022929999745,388.81022929999745,388.81022929999745,388.81022929999745,389.80919250000443,389.80919250000443,390.55981419999443,v,1,0.742494699996314,None,760188,001,2024-10-17_11h49.05.642,sequential _learning,2024.1.5,None,2024-10-17 11h49.14.939329 +0530,
50,c,35,2,142,2,,,,,390.57523430000583,,390.560610200002,390.57523430000583,391.57497539999895,391.57497539999895,391.57497539999895,391.57497539999895,391.57497539999895,392.57424139999785,392.57424139999785,393.359171300006,c,1,0.7820906999986619,None,760188,001,2024-10-17_11h49.05.642,sequential _learning,2024.1.5,None,2024-10-17 11h49.14.939329 +0530,
-150,z,35,3,143,3,,,,,393.37423640000634,,393.36000640000566,393.37423640000634,394.3733141999983,394.3733141999983,394.3733141999983,394.3733141999983,394.3733141999983,395.3728537999996,395.3728537999996,396.006372799995,z,1,0.6203997999982676,None,760188,001,2024-10-17_11h49.05.642,sequential _learning,2024.1.5,None,2024-10-17 11h49.14.939329 +0530,
-50,x,36,0,144,0,,,,,396.0216614999954,,396.007154299994,396.0216614999954,397.02246710000327,397.02246710000327,397.02246710000327,397.02246710000327,397.02246710000327,398.02103139999963,398.02103139999963,398.60551690000284,x,1,0.5713482000137446,None,760188,001,2024-10-17_11h49.05.642,sequential _learning,2024.1.5,None,2024-10-17 11h49.14.939329 +0530,
150,v,36,1,145,1,,,,,398.62077530000533,,398.6065640000015,398.62077530000533,399.62002380000195,399.62002380000195,399.62002380000195,399.62002380000195,399.62002380000195,400.619408700004,400.619408700004,401.2699922000029,v,1,0.6341350000002421,None,760188,001,2024-10-17_11h49.05.642,sequential _learning,2024.1.5,None,2024-10-17 11h49.14.939329 +0530,
50,c,36,2,146,2,,,,,401.28510979999555,,401.2707969000039,401.28510979999555,402.28532340000675,402.28532340000675,402.28532340000675,402.28532340000675,402.28532340000675,403.28439329999674,403.28439329999674,404.0191669000051,c,1,0.723127300007036,None,760188,001,2024-10-17_11h49.05.642,sequential _learning,2024.1.5,None,2024-10-17 11h49.14.939329 +0530,
-150,z,36,3,147,3,,,,,404.0342063999997,,404.02053870000236,404.0342063999997,405.03306250000605,405.03306250000605,405.03306250000605,405.03306250000605,405.03306250000605,406.0324937999976,406.0324937999976,406.65022789999784,z,1,0.6069299000082538,None,760188,001,2024-10-17_11h49.05.642,sequential _learning,2024.1.5,None,2024-10-17 11h49.14.939329 +0530,
-50,x,37,0,148,0,,,,,406.66508859999885,,406.6509162000002,406.66508859999885,407.66510559999733,407.66510559999733,407.66510559999733,407.66510559999733,407.66510559999733,408.6650795000023,408.6650795000023,409.3648283999937,x,1,0.6899860999983503,None,760188,001,2024-10-17_11h49.05.642,sequential _learning,2024.1.5,None,2024-10-17 11h49.14.939329 +0530,
150,v,37,1,149,1,,,,,409.3799153,,409.3655995000008,409.3799153,410.3810794000019,410.3810794000019,410.3810794000019,410.3810794000019,410.3810794000019,411.37879269999394,411.37879269999394,412.27956789999735,v,1,0.8996725000033621,None,760188,001,2024-10-17_11h49.05.642,sequential _learning,2024.1.5,None,2024-10-17 11h49.14.939329 +0530,
50,c,37,2,150,2,,,,,412.2949282000045,,412.28032999999414,412.2949282000045,413.2945084999956,413.2945084999956,413.2945084999956,413.2945084999956,413.2945084999956,414.2942718999984,414.2942718999984,414.8950757999992,c,1,0.5962122999917483,None,760188,001,2024-10-17_11h49.05.642,sequential _learning,2024.1.5,None,2024-10-17 11h49.14.939329 +0530,
-150,z,37,3,151,3,,,,,414.90991740000027,,414.89593980000063,414.90991740000027,415.9100391999964,415.9100391999964,415.9100391999964,415.9100391999964,415.9100391999964,416.908657699998,416.908657699998,417.50954040000215,z,1,0.5868382999906316,None,760188,001,2024-10-17_11h49.05.642,sequential _learning,2024.1.5,None,2024-10-17 11h49.14.939329 +0530,
-50,x,38,0,152,0,,,,,417.52508079999825,,417.5103705999936,417.52508079999825,418.5245775999938,418.5245775999938,418.5245775999938,418.5245775999938,418.5245775999938,419.52387059999455,419.52387059999455,419.94157399999676,x,1,0.40558200000668876,None,760188,001,2024-10-17_11h49.05.642,sequential _learning,2024.1.5,None,2024-10-17 11h49.14.939329 +0530,
150,v,38,1,153,1,,,,,419.9567524000013,,419.94234049999795,419.9567524000013,420.95654129999457,420.95654129999457,420.95654129999457,420.95654129999457,420.95654129999457,421.95581670000684,421.95581670000684,422.75625109999964,v,1,0.7906738000019686,None,760188,001,2024-10-17_11h49.05.642,sequential _learning,2024.1.5,None,2024-10-17 11h49.14.939329 +0530,
50,c,38,2,154,2,,,,,422.7713264000049,,422.75703649999923,422.7713264000049,423.7714898999984,423.7714898999984,423.7714898999984,423.7714898999984,423.7714898999984,424.7704450000019,424.7704450000019,425.1711292999971,c,1,0.38463380000030156,None,760188,001,2024-10-17_11h49.05.642,sequential _learning,2024.1.5,None,2024-10-17 11h49.14.939329 +0530,
-150,z,38,3,155,3,,,,,425.1876018000039,,425.17197690000467,425.1876018000039,426.1868878999958,426.1868878999958,426.1868878999958,426.1868878999958,426.1868878999958,427.1864604000002,427.1864604000002,427.9199219000002,z,1,0.7296665000030771,None,760188,001,2024-10-17_11h49.05.642,sequential _learning,2024.1.5,None,2024-10-17 11h49.14.939329 +0530,
-50,x,39,0,156,0,,,,,427.93508690000453,,427.92066519999935,427.93508690000453,428.93482300000323,428.93482300000323,428.93482300000323,428.93482300000323,428.93482300000323,429.93356800000765,429.93356800000765,430.8348993999971,x,1,0.900278300003265,None,760188,001,2024-10-17_11h49.05.642,sequential _learning,2024.1.5,None,2024-10-17 11h49.14.939329 +0530,
150,v,39,1,157,1,,,,,430.8498264999944,,430.83566599999904,430.8498264999944,431.8495846000005,431.8495846000005,431.8495846000005,431.8495846000005,431.8495846000005,432.8492632999987,432.8492632999987,433.733441400007,v,1,0.870306900003925,None,760188,001,2024-10-17_11h49.05.642,sequential _learning,2024.1.5,None,2024-10-17 11h49.14.939329 +0530,
50,c,39,2,158,2,,,,,433.7483981999976,,433.7344998000044,433.7483981999976,434.7478293000022,434.7478293000022,434.7478293000022,434.7478293000022,434.7478293000022,435.7469637000031,435.7469637000031,436.56440630000725,c,1,0.81571989999793,None,760188,001,2024-10-17_11h49.05.642,sequential _learning,2024.1.5,None,2024-10-17 11h49.14.939329 +0530,
-150,z,39,3,159,3,,,,,436.5793182000052,,436.5652145000058,436.5793182000052,437.5793054999958,437.5793054999958,437.5793054999958,437.5793054999958,437.5793054999958,438.57860180000716,438.57860180000716,439.2624275999988,z,1,0.6780436999979429,None,760188,001,2024-10-17_11h49.05.642,sequential _learning,2024.1.5,None,2024-10-17 11h49.14.939329 +0530,
-50,x,40,0,160,0,,,,,439.27769960000296,,439.2632578000048,439.27769960000296,440.2772014999937,440.2772014999937,440.2772014999937,440.2772014999937,440.2772014999937,441.27703979999933,441.27703979999933,442.1770358000067,x,1,0.89345129999856,None,760188,001,2024-10-17_11h49.05.642,sequential _learning,2024.1.5,None,2024-10-17 11h49.14.939329 +0530,
150,v,40,1,161,1,,,,,442.1923802999954,,442.1777779999975,442.1923802999954,443.1760546000005,443.1760546000005,443.1760546000005,443.1760546000005,443.1931160999957,444.1912936000008,444.1912936000008,445.0919231000007,v,1,0.8936008000018774,None,760188,001,2024-10-17_11h49.05.642,sequential _learning,2024.1.5,None,2024-10-17 11h49.14.939329 +0530,
50,c,40,2,162,2,,,,,445.10740090000036,,445.0926354999974,445.10740090000036,446.0909382999962,446.0909382999962,446.0909382999962,446.0909382999962,446.10737430000154,447.1065166000044,447.1065166000044,447.59029429999646,c,1,0.47569920000387356,None,760188,001,2024-10-17_11h49.05.642,sequential _learning,2024.1.5,None,2024-10-17 11h49.14.939329 +0530,
-150,z,40,3,163,3,,,,,447.60577059999923,,447.5910562000063,447.60577059999923,448.60602999999537,448.60602999999537,448.60602999999537,448.60602999999537,448.60602999999537,449.6049772999977,449.6049772999977,449.97266719999607,z,1,0.36499000000185333,None,760188,001,2024-10-17_11h49.05.642,sequential _learning,2024.1.5,None,2024-10-17 11h49.14.939329 +0530,
-50,x,41,0,164,0,,,,,449.9876110000041,,449.9734451999975,449.9876110000041,450.98751659999834,450.98751659999834,450.98751659999834,450.98751659999834,450.98751659999834,451.986527999994,451.986527999994,452.4209627999953,x,1,0.4245478999946499,None,760188,001,2024-10-17_11h49.05.642,sequential _learning,2024.1.5,None,2024-10-17 11h49.14.939329 +0530,
150,v,41,1,165,1,,,,,452.43585500000336,,452.42176520000794,452.43585500000336,453.436586900003,453.436586900003,453.436586900003,453.436586900003,453.436586900003,454.4349380000058,454.4349380000058,455.08590370000456,v,1,0.638666300001205,None,760188,001,2024-10-17_11h49.05.642,sequential _learning,2024.1.5,None,2024-10-17 11h49.14.939329 +0530,
50,c,41,2,166,2,,,,,455.1013152999949,,455.0866299000045,455.1013152999949,456.10086109999975,456.10086109999975,456.10086109999975,456.10086109999975,456.10086109999975,457.0999807000044,457.0999807000044,457.7009251999989,c,1,0.5904160999925807,None,760188,001,2024-10-17_11h49.05.642,sequential _learning,2024.1.5,None,2024-10-17 11h49.14.939329 +0530,
-150,z,41,3,167,3,,,,,457.7162926000019,,457.7017199999973,457.7162926000019,458.7155700000003,458.7155700000003,458.7155700000003,458.7155700000003,458.7155700000003,459.7152037000051,459.7152037000051,460.482285399994,z,1,0.758711399990716,None,760188,001,2024-10-17_11h49.05.642,sequential _learning,2024.1.5,None,2024-10-17 11h49.14.939329 +0530,
-50,x,42,0,168,0,,,,,460.4976494000002,,460.4831023000006,460.4976494000002,461.49782859999686,461.49782859999686,461.49782859999686,461.49782859999686,461.49782859999686,462.49707990000024,462.49707990000024,463.2638394999958,x,1,0.7603074000071501,None,760188,001,2024-10-17_11h49.05.642,sequential _learning,2024.1.5,None,2024-10-17 11h49.14.939329 +0530,
150,v,42,1,169,1,,,,,463.27963119999913,,463.2646317000035,463.27963119999913,464.2790323999943,464.2790323999943,464.2790323999943,464.2790323999943,464.2790323999943,465.2781098999985,465.2781098999985,466.06302739999956,v,1,0.7676371999987168,None,760188,001,2024-10-17_11h49.05.642,sequential _learning,2024.1.5,None,2024-10-17 11h49.14.939329 +0530,
50,c,42,2,170,2,,,,,466.0781360999972,,466.06448770000134,466.0781360999972,467.07810820000304,467.07810820000304,467.07810820000304,467.07810820000304,467.07810820000304,468.0763117000024,468.0763117000024,468.8102862999949,c,1,0.7241364999936195,None,760188,001,2024-10-17_11h49.05.642,sequential _learning,2024.1.5,None,2024-10-17 11h49.14.939329 +0530,
-150,z,42,3,171,3,,,,,468.8255732999969,,468.81108879999374,468.8255732999969,469.80926609999733,469.80926609999733,469.80926609999733,469.80926609999733,469.82546439999714,470.82472580000467,470.82472580000467,471.50826699999743,z,1,0.6778236999962246,None,760188,001,2024-10-17_11h49.05.642,sequential _learning,2024.1.5,None,2024-10-17 11h49.14.939329 +0530,
-50,x,43,0,172,0,,,,,471.5243829999963,,471.50906199999736,471.5243829999963,472.5073809000023,472.5073809000023,472.5073809000023,472.5073809000023,472.5238553999952,473.5229243000067,473.5229243000067,474.2902774999966,x,1,0.7550543999968795,None,760188,001,2024-10-17_11h49.05.642,sequential _learning,2024.1.5,None,2024-10-17 11h49.14.939329 +0530,
150,v,43,1,173,1,,,,,474.30535039999813,,474.29105549999804,474.30535039999813,475.28872549999505,475.28872549999505,475.28872549999505,475.28872549999505,475.3056937000074,476.3046922000067,476.3046922000067,476.9552309999999,v,1,0.6348944000055781,None,760188,001,2024-10-17_11h49.05.642,sequential _learning,2024.1.5,None,2024-10-17 11h49.14.939329 +0530,
50,c,43,2,174,2,,,,,476.97052869999607,,476.95601480000187,476.97052869999607,477.9713458000042,477.9713458000042,477.9713458000042,477.9713458000042,477.9713458000042,478.9694939000037,478.9694939000037,479.7042675999983,c,1,0.7231026999943424,None,760188,001,2024-10-17_11h49.05.642,sequential _learning,2024.1.5,None,2024-10-17 11h49.14.939329 +0530,
-150,z,43,3,175,3,,,,,479.7191692000051,,479.7053398999997,479.7191692000051,480.71930739999516,480.71930739999516,480.71930739999516,480.71930739999516,480.71930739999516,481.71881950000534,481.71881950000534,482.61808280000696,z,1,0.8835082000005059,None,760188,001,2024-10-17_11h49.05.642,sequential _learning,2024.1.5,None,2024-10-17 11h49.14.939329 +0530,
-50,x,44,0,176,0,,,,,482.63364240000374,,482.61892599999555,482.63364240000374,483.6334504999977,483.6334504999977,483.6334504999977,483.6334504999977,483.6334504999977,484.6325882999954,484.6325882999954,485.36624160000065,x,1,0.7288498999987496,None,760188,001,2024-10-17_11h49.05.642,sequential _learning,2024.1.5,None,2024-10-17 11h49.14.939329 +0530,
150,v,44,1,177,1,,,,,485.3816797000036,,485.3670650999993,485.3816797000036,486.3814840999985,486.3814840999985,486.3814840999985,486.3814840999985,486.3814840999985,487.3806989000004,487.3806989000004,488.18128669999714,v,1,0.784207000004244,None,760188,001,2024-10-17_11h49.05.642,sequential _learning,2024.1.5,None,2024-10-17 11h49.14.939329 +0530,
50,c,44,2,178,2,,,,,488.19670879999467,,488.18203530000756,488.19670879999467,489.1802828999935,489.1802828999935,489.1802828999935,489.1802828999935,489.19664829999965,490.1959007999976,490.1959007999976,491.046488699998,c,1,0.8432213000050979,None,760188,001,2024-10-17_11h49.05.642,sequential _learning,2024.1.5,None,2024-10-17 11h49.14.939329 +0530,
-150,z,44,3,179,3,,,,,491.06159719999414,,491.0473190000048,491.06159719999414,492.06174649999593,492.06174649999593,492.06174649999593,492.06174649999593,492.06174649999593,493.06048569999984,493.06048569999984,493.9276635999995,z,1,0.8572169999970356,None,760188,001,2024-10-17_11h49.05.642,sequential _learning,2024.1.5,None,2024-10-17 11h49.14.939329 +0530,
-50,x,45,0,180,0,,,,,493.9429197999998,,493.92837300000247,493.9429197999998,494.9261727999983,494.9261727999983,494.9261727999983,494.9261727999983,494.9427563000063,495.94196500000544,495.94196500000544,496.90952420000394,x,1,0.9516160000057425,None,760188,001,2024-10-17_11h49.05.642,sequential _learning,2024.1.5,None,2024-10-17 11h49.14.939329 +0530,
150,v,45,1,181,1,,,,,496.9248685000057,,496.9102959000011,496.9248685000057,497.9245396000042,497.9245396000042,497.9245396000042,497.9245396000042,497.9245396000042,498.9232714999962,498.9232714999962,499.8240267000074,v,1,0.8945829000003869,None,760188,001,2024-10-17_11h49.05.642,sequential _learning,2024.1.5,None,2024-10-17 11h49.14.939329 +0530,
50,c,45,2,182,2,,,,,499.8392635000055,,499.82475810000324,499.8392635000055,500.83923890000733,500.83923890000733,500.83923890000733,500.83923890000733,500.83923890000733,501.83851380000124,501.83851380000124,502.55592539999634,c,1,0.7149774999998044,None,760188,001,2024-10-17_11h49.05.642,sequential _learning,2024.1.5,None,2024-10-17 11h49.14.939329 +0530,
-150,z,45,3,183,3,,,,,502.5715782000043,,502.556685500007,502.5715782000043,503.57055910000054,503.57055910000054,503.57055910000054,503.57055910000054,503.57055910000054,504.5701146000065,504.5701146000065,505.2206953999994,z,1,0.643897099987953,None,760188,001,2024-10-17_11h49.05.642,sequential _learning,2024.1.5,None,2024-10-17 11h49.14.939329 +0530,
-50,x,46,0,184,0,,,,,505.235689299996,,505.22148199999356,505.235689299996,506.2356642999948,506.2356642999948,506.2356642999948,506.2356642999948,506.2356642999948,507.23523289999866,507.23523289999866,508.1529991999996,x,1,0.905846499998006,None,760188,001,2024-10-17_11h49.05.642,sequential _learning,2024.1.5,None,2024-10-17 11h49.14.939329 +0530,
150,v,46,1,185,1,,,,,508.1679284999991,,508.1542141999962,508.1679284999991,509.16669929999625,509.16669929999625,509.16669929999625,509.16669929999625,509.16669929999625,510.16621979999763,510.16621979999763,512.6163047000009,v,1,2.433236000011675,None,760188,001,2024-10-17_11h49.05.642,sequential _learning,2024.1.5,None,2024-10-17 11h49.14.939329 +0530,
50,c,46,2,186,2,,,,,512.6316193999955,,512.6174128999992,512.6316193999955,513.6308390000049,513.6308390000049,513.6308390000049,513.6308390000049,513.6308390000049,514.6301319000049,514.6301319000049,515.4136532999983,c,1,0.773032900004182,None,760188,001,2024-10-17_11h49.05.642,sequential _learning,2024.1.5,None,2024-10-17 11h49.14.939329 +0530,
-150,z,46,3,187,3,,,,,515.4289278000069,,515.4143961999944,515.4289278000069,516.4295233000012,516.4295233000012,516.4295233000012,516.4295233000012,516.4295233000012,517.4287630000035,517.4287630000035,518.2624480999948,z,1,0.8312015999981668,None,760188,001,2024-10-17_11h49.05.642,sequential _learning,2024.1.5,None,2024-10-17 11h49.14.939329 +0530,
-50,x,47,0,188,0,,,,,518.2773895999999,,518.2633169000037,518.2773895999999,519.2778856999939,519.2778856999939,519.2778856999939,519.2778856999939,519.2778856999939,520.276821499996,520.276821499996,521.0441763999988,x,1,0.7645839999895543,None,760188,001,2024-10-17_11h49.05.642,sequential _learning,2024.1.5,None,2024-10-17 11h49.14.939329 +0530,
150,v,47,1,189,1,,,,,521.0591571999976,,521.045335200004,521.0591571999976,522.0586033,522.0586033,522.0586033,522.0586033,522.0586033,523.0579405000026,523.0579405000026,523.4756121999962,v,1,0.41537200000311714,None,760188,001,2024-10-17_11h49.05.642,sequential _learning,2024.1.5,None,2024-10-17 11h49.14.939329 +0530,
50,c,47,2,190,2,,,,,523.4911081000027,,523.4763879999955,523.4911081000027,524.4907269999967,524.4907269999967,524.4907269999967,524.4907269999967,524.4907269999967,525.489868100005,525.489868100005,525.9740669000021,c,1,0.47103090000746306,None,760188,001,2024-10-17_11h49.05.642,sequential _learning,2024.1.5,None,2024-10-17 11h49.14.939329 +0530,
-150,z,47,3,191,3,,,,,525.9892762999953,,525.9748618000012,525.9892762999953,526.9891239999997,526.9891239999997,526.9891239999997,526.9891239999997,526.9891239999997,527.9887301999988,527.9887301999988,528.9056873999943,z,1,0.9155761000001803,None,760188,001,2024-10-17_11h49.05.642,sequential _learning,2024.1.5,None,2024-10-17 11h49.14.939329 +0530,
-50,x,48,0,192,0,,,,,528.9210592000018,,528.9065025000018,528.9210592000018,529.921133900003,529.921133900003,529.921133900003,529.921133900003,529.921133900003,530.9198500000057,530.9198500000057,531.8199915000005,x,1,0.8843561000103364,None,760188,001,2024-10-17_11h49.05.642,sequential _learning,2024.1.5,None,2024-10-17 11h49.14.939329 +0530,
150,v,48,1,193,1,,,,,531.8356096000061,,531.8208123999939,531.8356096000061,532.8356492000021,532.8356492000021,532.8356492000021,532.8356492000021,532.8356492000021,533.8352117000031,533.8352117000031,534.4183176999941,v,1,0.5715540999954101,None,760188,001,2024-10-17_11h49.05.642,sequential _learning,2024.1.5,None,2024-10-17 11h49.14.939329 +0530,
50,c,48,2,194,2,,,,,534.4339527999982,,534.419103799999,534.4339527999982,535.4337945000007,535.4337945000007,535.4337945000007,535.4337945000007,535.4337945000007,536.4333049999987,536.4333049999987,537.0836320999952,c,1,0.6486184999957914,None,760188,001,2024-10-17_11h49.05.642,sequential _learning,2024.1.5,None,2024-10-17 11h49.14.939329 +0530,
-150,z,48,3,195,3,,,,,537.0992703999946,,537.0843667000008,537.0992703999946,538.0988477000064,538.0988477000064,538.0988477000064,538.0988477000064,538.0988477000064,539.0980541000026,539.0980541000026,539.565571900006,z,1,0.45351859999937005,None,760188,001,2024-10-17_11h49.05.642,sequential _learning,2024.1.5,None,2024-10-17 11h49.14.939329 +0530,
-50,x,49,0,196,0,,,,,539.5806863000034,,539.5663736999995,539.5806863000034,540.580744299994,540.580744299994,540.580744299994,540.580744299994,540.580744299994,541.5800221999962,541.5800221999962,542.1804969000077,x,1,0.5938156000047456,None,760188,001,2024-10-17_11h49.05.642,sequential _learning,2024.1.5,None,2024-10-17 11h49.14.939329 +0530,
150,v,49,1,197,1,,,,,542.1956096000067,,542.1811985999957,542.1956096000067,543.1953638999985,543.1953638999985,543.1953638999985,543.1953638999985,543.1953638999985,544.1945297000057,544.1945297000057,544.6290064000059,v,1,0.4325165000045672,None,760188,001,2024-10-17_11h49.05.642,sequential _learning,2024.1.5,None,2024-10-17 11h49.14.939329 +0530,
50,c,49,2,198,2,,,,,544.6442999999999,,544.6298949000047,544.6442999999999,545.6441443999938,545.6441443999938,545.6441443999938,545.6441443999938,545.6441443999938,546.6431567999971,546.6431567999971,546.9275589000026,c,1,0.27786590000323486,None,760188,001,2024-10-17_11h49.05.642,sequential _learning,2024.1.5,None,2024-10-17 11h49.14.939329 +0530,
-150,z,49,3,199,3,,,,,546.9432901999971,,546.9285750999989,546.9432901999971,547.9427666999982,547.9427666999982,547.9427666999982,547.9427666999982,547.9427666999982,548.9418150999991,548.9418150999991,549.2423866000026,z,1,0.2853354999970179,None,760188,001,2024-10-17_11h49.05.642,sequential _learning,2024.1.5,None,2024-10-17 11h49.14.939329 +0530,
-150,z,,,,,0,0,0,3,549.2581797000021,,549.2466902000015,549.2581797000021,550.2584410999989,550.2584410999989,550.2584410999989,550.2584410999989,550.2584410999989,551.2570055999968,551.2570055999968,552.7570519000001,z,1,1.488052600005176,None,760188,001,2024-10-17_11h49.05.642,sequential _learning,2024.1.5,None,2024-10-17 11h49.14.939329 +0530,
50,c,,,,,0,1,1,2,552.7722544999997,,552.7581171000056,552.7722544999997,553.7722656999977,553.7722656999977,553.7722656999977,553.7722656999977,553.7722656999977,554.7713634999964,554.7713634999964,555.9721123000054,c,1,1.192364999995334,None,760188,001,2024-10-17_11h49.05.642,sequential _learning,2024.1.5,None,2024-10-17 11h49.14.939329 +0530,
-150,z,,,,,0,2,2,3,555.987338100007,,555.9729491000035,555.987338100007,556.986582700003,556.986582700003,556.986582700003,556.986582700003,556.986582700003,557.9861167000054,557.9861167000054,558.7037582000048,z,1,0.7149831999995513,None,760188,001,2024-10-17_11h49.05.642,sequential _learning,2024.1.5,None,2024-10-17 11h49.14.939329 +0530,
150,v,,,,,0,3,3,1,558.7186712999974,,558.7045102999982,558.7186712999974,559.7185266000015,559.7185266000015,559.7185266000015,559.7185266000015,559.7185266000015,560.7175923000032,560.7175923000032,561.6354439999996,v,1,0.9129660000035074,None,760188,001,2024-10-17_11h49.05.642,sequential _learning,2024.1.5,None,2024-10-17 11h49.14.939329 +0530,
150,v,,,,,1,0,4,1,561.650404,,561.6364166999992,561.650404,562.650404400003,562.650404400003,562.650404400003,562.650404400003,562.650404400003,563.649241200008,563.649241200008,564.3499970999983,v,1,0.6940446000080556,None,760188,001,2024-10-17_11h49.05.642,sequential _learning,2024.1.5,None,2024-10-17 11h49.14.939329 +0530,
-150,z,,,,,1,1,5,3,564.3653309999936,,564.3508128999965,564.3653309999936,565.3647997999942,565.3647997999942,565.3647997999942,565.3647997999942,565.3647997999942,566.3643890999956,566.3643890999956,567.3979551999946,c,0,1.0255958000052487,None,760188,001,2024-10-17_11h49.05.642,sequential _learning,2024.1.5,None,2024-10-17 11h49.14.939329 +0530,
-50,x,,,,,1,2,6,0,567.413128900007,,567.3987000000052,567.413128900007,568.4131249000056,568.4131249000056,568.4131249000056,568.4131249000056,568.4131249000056,569.4120078999986,569.4120078999986,570.5134109000064,x,1,1.098045099992305,None,760188,001,2024-10-17_11h49.05.642,sequential _learning,2024.1.5,None,2024-10-17 11h49.14.939329 +0530,
-50,x,,,,,1,3,7,0,570.5278811000026,,570.5142004999943,570.5278811000026,571.5281159000006,571.5281159000006,571.5281159000006,571.5281159000006,571.5281159000006,572.5267047999951,572.5267047999951,574.1103097000014,x,1,1.5776915000024019,None,760188,001,2024-10-17_11h49.05.642,sequential _learning,2024.1.5,None,2024-10-17 11h49.14.939329 +0530,
-50,x,,,,,2,0,8,0,574.1256928000075,,574.1111249999958,574.1256928000075,575.108805099997,575.108805099997,575.108805099997,575.108805099997,575.1260754999967,576.1250122000056,576.1250122000056,577.1913027999981,x,1,1.0515921000042,None,760188,001,2024-10-17_11h49.05.642,sequential _learning,2024.1.5,None,2024-10-17 11h49.14.939329 +0530,
-50,x,,,,,2,1,9,0,577.2071231000009,,577.1920522,577.2071231000009,578.2076681000035,578.2076681000035,578.2076681000035,578.2076681000035,578.2076681000035,579.2062096000009,579.2062096000009,579.8898921000073,x,1,0.6772620999981882,None,760188,001,2024-10-17_11h49.05.642,sequential _learning,2024.1.5,None,2024-10-17 11h49.14.939329 +0530,
50,c,,,,,2,2,10,2,579.9053773000051,,579.8906275000045,579.9053773000051,580.9052871000022,580.9052871000022,580.9052871000022,580.9052871000022,580.9052871000022,581.9041400999995,581.9041400999995,582.6546195999981,c,1,0.7397417999891331,None,760188,001,2024-10-17_11h49.05.642,sequential _learning,2024.1.5,None,2024-10-17 11h49.14.939329 +0530,
150,v,,,,,2,3,11,1,582.670223299996,,582.6553897999984,582.670223299996,583.6695837000007,583.6695837000007,583.6695837000007,583.6695837000007,583.6695837000007,584.6693509000033,584.6693509000033,585.7371363999991,v,1,1.0535268999956315,None,760188,001,2024-10-17_11h49.05.642,sequential _learning,2024.1.5,None,2024-10-17 11h49.14.939329 +0530,
-150,z,,,,,3,0,12,3,585.7521916999976,,585.7383009000041,585.7521916999976,586.7516154000041,586.7516154000041,586.7516154000041,586.7516154000041,586.7516154000041,587.750703800004,587.750703800004,588.7855108000076,z,1,1.0176935000054073,None,760188,001,2024-10-17_11h49.05.642,sequential _learning,2024.1.5,None,2024-10-17 11h49.14.939329 +0530,
150,v,,,,,3,1,13,1,588.800322199997,,588.786514899999,588.800322199997,589.7995881999959,589.7995881999959,589.7995881999959,589.7995881999959,589.7995881999959,590.7988316999981,590.7988316999981,591.7992238000006,v,1,0.9966386000014609,None,760188,001,2024-10-17_11h49.05.642,sequential _learning,2024.1.5,None,2024-10-17 11h49.14.939329 +0530,
150,v,,,,,3,2,14,1,591.8143868000043,,591.8000112000009,591.8143868000043,592.8146682999941,592.8146682999941,592.8146682999941,592.8146682999941,592.8146682999941,593.8134604999941,593.8134604999941,594.9981902,v,1,1.178886900001089,None,760188,001,2024-10-17_11h49.05.642,sequential _learning,2024.1.5,None,2024-10-17 11h49.14.939329 +0530,
50,c,,,,,3,3,15,2,595.0130518000078,,594.999037600006,595.0130518000078,596.0126705000002,596.0126705000002,596.0126705000002,596.0126705000002,596.0126705000002,597.0111446999945,597.0111446999945,598.0284723000077,c,1,1.0012991999974474,None,760188,001,2024-10-17_11h49.05.642,sequential _learning,2024.1.5,None,2024-10-17 11h49.14.939329 +0530,
150,v,,,,,4,0,16,1,598.0435992999992,,598.0291857999982,598.0435992999992,599.043863400002,599.043863400002,599.043863400002,599.043863400002,599.043863400002,600.0428468000027,600.0428468000027,600.9931880999939,v,1,0.9335673000023235,None,760188,001,2024-10-17_11h49.05.642,sequential _learning,2024.1.5,None,2024-10-17 11h49.14.939329 +0530,
-150,z,,,,,4,1,17,3,601.0090049999999,,600.9939761999995,601.0090049999999,602.0085947000043,602.0085947000043,602.0085947000043,602.0085947000043,602.0085947000043,603.0075240000006,603.0075240000006,603.7755379000009,z,1,0.7645678999979282,None,760188,001,2024-10-17_11h49.05.642,sequential _learning,2024.1.5,None,2024-10-17 11h49.14.939329 +0530,
-150,z,,,,,4,2,18,3,603.7905339999998,,603.7763855999947,603.7905339999998,604.7900222000026,604.7900222000026,604.7900222000026,604.7900222000026,604.7900222000026,605.7890462000069,605.7890462000069,606.8395224999986,z,1,1.0466187999991234,None,760188,001,2024-10-17_11h49.05.642,sequential _learning,2024.1.5,None,2024-10-17 11h49.14.939329 +0530,
-150,z,,,,,4,3,19,3,606.8549150000035,,606.8402728000074,606.8549150000035,607.8547765999974,607.8547765999974,607.8547765999974,607.8547765999974,607.8547765999974,608.8540193999943,608.8540193999943,610.9365354000038,x,0,2.068780200002948,None,760188,001,2024-10-17_11h49.05.642,sequential _learning,2024.1.5,None,2024-10-17 11h49.14.939329 +0530,
-150,z,,,,,5,0,20,3,610.9520105999982,,610.9373255999963,610.9520105999982,611.9356654000003,611.9356654000003,611.9356654000003,611.9356654000003,611.952329199994,612.9511153000058,612.9511153000058,614.1852013000025,z,1,1.2248970000073314,None,760188,001,2024-10-17_11h49.05.642,sequential _learning,2024.1.5,None,2024-10-17 11h49.14.939329 +0530,
-150,z,,,,,5,1,21,3,614.2006523000018,,614.1859301000077,614.2006523000018,615.2002057000063,615.2002057000063,615.2002057000063,615.2002057000063,615.2002057000063,616.1991024000017,616.1991024000017,617.5492109000043,z,1,1.3381036999926437,None,760188,001,2024-10-17_11h49.05.642,sequential _learning,2024.1.5,None,2024-10-17 11h49.14.939329 +0530,
150,v,,,,,5,2,22,1,617.564575700002,,617.5499915999972,617.564575700002,618.5643814000068,618.5643814000068,618.5643814000068,618.5643814000068,618.5643814000068,619.5644419000018,619.5644419000018,620.5143570000073,v,1,0.9481042999977944,None,760188,001,2024-10-17_11h49.05.642,sequential _learning,2024.1.5,None,2024-10-17 11h49.14.939329 +0530,
-50,x,,,,,5,3,23,0,620.5292940000072,,620.5151897000032,620.5292940000072,621.5293551000068,621.5293551000068,621.5293551000068,621.5293551000068,621.5293551000068,622.5288,622.5288,623.5795974000066,x,1,1.0458227999915835,None,760188,001,2024-10-17_11h49.05.642,sequential _learning,2024.1.5,None,2024-10-17 11h49.14.939329 +0530,
150,v,,,,,6,0,24,1,623.5944497000019,,623.5804605000012,623.5944497000019,624.594337100003,624.594337100003,624.594337100003,624.594337100003,624.594337100003,625.5936284000054,625.5936284000054,626.3937420000002,v,1,0.7937051999906544,None,760188,001,2024-10-17_11h49.05.642,sequential _learning,2024.1.5,None,2024-10-17 11h49.14.939329 +0530,
-50,x,,,,,6,1,25,0,626.4091625000001,,626.3944923999952,626.4091625000001,627.4087640000071,627.4087640000071,627.4087640000071,627.4087640000071,627.4087640000071,628.408599500006,628.408599500006,629.6249337000045,x,1,1.2007825000036974,None,760188,001,2024-10-17_11h49.05.642,sequential _learning,2024.1.5,None,2024-10-17 11h49.14.939329 +0530,
-50,x,,,,,6,2,26,0,629.6403210999997,,629.6257660999981,629.6403210999997,630.6404203999991,630.6404203999991,630.6404203999991,630.6404203999991,630.6404203999991,631.6394914999983,631.6394914999983,632.7729842999979,x,1,1.125427300008596,None,760188,001,2024-10-17_11h49.05.642,sequential _learning,2024.1.5,None,2024-10-17 11h49.14.939329 +0530,
-50,x,,,,,6,3,27,0,632.7888325999957,,632.7736985999945,632.7888325999957,633.7885460999969,633.7885460999969,633.7885460999969,633.7885460999969,633.7885460999969,634.787405199997,634.787405199997,635.7221812000062,x,1,0.9271016999991843,None,760188,001,2024-10-17_11h49.05.642,sequential _learning,2024.1.5,None,2024-10-17 11h49.14.939329 +0530,
150,v,,,,,7,0,28,1,635.7371660000063,,635.7232435000042,635.7371660000063,636.7360835,636.7360835,636.7360835,636.7360835,636.7360835,637.7357559999946,637.7357559999946,638.6691484000039,v,1,0.9192255999951158,None,760188,001,2024-10-17_11h49.05.642,sequential _learning,2024.1.5,None,2024-10-17 11h49.14.939329 +0530,
-50,x,,,,,7,1,29,0,638.6848814999976,,638.6699850000005,638.6848814999976,639.6678402999969,639.6678402999969,639.6678402999969,639.6678402999969,639.6843413000024,640.6835624999949,640.6835624999949,641.5346152999991,x,1,0.8463442000065697,None,760188,001,2024-10-17_11h49.05.642,sequential _learning,2024.1.5,None,2024-10-17 11h49.14.939329 +0530,
50,c,,,,,7,2,30,2,641.549674599999,,641.5354047000001,641.549674599999,642.5497133000026,642.5497133000026,642.5497133000026,642.5497133000026,642.5497133000026,643.5487072999967,643.5487072999967,644.6987149000051,c,1,1.1369285999971908,None,760188,001,2024-10-17_11h49.05.642,sequential _learning,2024.1.5,None,2024-10-17 11h49.14.939329 +0530,
-50,x,,,,,7,3,31,0,644.7141645999945,,644.6994741999952,644.7141645999945,645.7137976999948,645.7137976999948,645.7137976999948,645.7137976999948,645.7137976999948,646.7135292000021,646.7135292000021,647.5304531000002,x,1,0.8050867999991169,None,760188,001,2024-10-17_11h49.05.642,sequential _learning,2024.1.5,None,2024-10-17 11h49.14.939329 +0530,
-50,x,,,,,8,0,32,0,647.5457644999988,,647.5312649999978,647.5457644999988,648.5454413999978,648.5454413999978,648.5454413999978,648.5454413999978,648.5454413999978,649.5456548999937,649.5456548999937,650.2953108000074,x,1,0.7379731999972137,None,760188,001,2024-10-17_11h49.05.642,sequential _learning,2024.1.5,None,2024-10-17 11h49.14.939329 +0530,
-50,x,,,,,8,1,33,0,650.3106439999974,,650.2960431999963,650.3106439999974,651.3106842999987,651.3106842999987,651.3106842999987,651.3106842999987,651.3106842999987,652.3097038999986,652.3097038999986,653.1270954000065,x,1,0.812391800005571,None,760188,001,2024-10-17_11h49.05.642,sequential _learning,2024.1.5,None,2024-10-17 11h49.14.939329 +0530,
150,v,,,,,8,2,34,1,653.1423019000067,,653.1280026000022,653.1423019000067,654.1421568000078,654.1421568000078,654.1421568000078,654.1421568000078,654.1421568000078,655.1412397999957,655.1412397999957,655.9752526999946,v,1,0.8294736999960151,None,760188,001,2024-10-17_11h49.05.642,sequential _learning,2024.1.5,None,2024-10-17 11h49.14.939329 +0530,
50,c,,,,,8,3,35,2,655.990366900005,,655.9760695000004,655.990366900005,656.9900728000066,656.9900728000066,656.9900728000066,656.9900728000066,656.9900728000066,657.989318699998,657.989318699998,659.0561153000017,c,1,1.0597833999927389,None,760188,001,2024-10-17_11h49.05.642,sequential _learning,2024.1.5,None,2024-10-17 11h49.14.939329 +0530,
150,v,,,,,9,0,36,1,659.072292900004,,659.0568073000031,659.072292900004,660.0713207999943,660.0713207999943,660.0713207999943,660.0713207999943,660.0713207999943,661.0711852999957,661.0711852999957,662.321214399999,v,1,1.2421576999913668,None,760188,001,2024-10-17_11h49.05.642,sequential _learning,2024.1.5,None,2024-10-17 11h49.14.939329 +0530,
-150,z,,,,,9,1,37,3,662.3363851000031,,662.3219653999986,662.3363851000031,663.3362179999967,663.3362179999967,663.3362179999967,663.3362179999967,663.3362179999967,664.3353999999963,664.3353999999963,665.2856275999948,z,1,0.9386552999931155,None,760188,001,2024-10-17_11h49.05.642,sequential _learning,2024.1.5,None,2024-10-17 11h49.14.939329 +0530,
-150,z,,,,,9,2,38,3,665.3009788000054,,665.2864071999938,665.3009788000054,666.3014255000016,666.3014255000016,666.3014255000016,666.3014255000016,666.3014255000016,667.3003715999948,667.3003715999948,668.3505314000067,z,1,1.0360054000047967,None,760188,001,2024-10-17_11h49.05.642,sequential _learning,2024.1.5,None,2024-10-17 11h49.14.939329 +0530,
50,c,,,,,9,3,39,2,668.3658733000048,,668.3513173999963,668.3658733000048,669.3665590000019,669.3665590000019,669.3665590000019,669.3665590000019,669.3665590000019,670.3651163000031,670.3651163000031,671.7149028999993,c,1,1.3376871999935247,None,760188,001,2024-10-17_11h49.05.642,sequential _learning,2024.1.5,None,2024-10-17 11h49.14.939329 +0530,
150,v,,,,,10,0,40,1,671.7321758000035,,671.7157516000007,671.7321758000035,672.7313556000008,672.7313556000008,672.7313556000008,672.7313556000008,672.7472745999985,673.7293823000073,673.7293823000073,674.9463096999971,v,1,1.2002914000040619,None,760188,001,2024-10-17_11h49.05.642,sequential _learning,2024.1.5,None,2024-10-17 11h49.14.939329 +0530,
-50,x,,,,,10,1,41,0,674.9619399000076,,674.9470511999971,674.9619399000076,675.9611340999982,675.9611340999982,675.9611340999982,675.9611340999982,675.9611340999982,676.9610807999998,676.9610807999998,678.1112529999955,x,1,1.13372640000307,None,760188,001,2024-10-17_11h49.05.642,sequential _learning,2024.1.5,None,2024-10-17 11h49.14.939329 +0530,
-150,z,,,,,10,2,42,3,678.1266448999959,,678.1124082000024,678.1266448999959,679.1263644999999,679.1263644999999,679.1263644999999,679.1263644999999,679.1263644999999,680.125163100005,680.125163100005,681.1094351000065,z,1,0.9798838999995496,None,760188,001,2024-10-17_11h49.05.642,sequential _learning,2024.1.5,None,2024-10-17 11h49.14.939329 +0530,
50,c,,,,,10,3,43,2,681.1247277999937,,681.1101022999937,681.1247277999937,682.1239075000049,682.1239075000049,682.1239075000049,682.1239075000049,682.1239075000049,683.1234767999995,683.1234767999995,684.1409299000079,c,1,1.0129710999899544,None,760188,001,2024-10-17_11h49.05.642,sequential _learning,2024.1.5,None,2024-10-17 11h49.14.939329 +0530,
-150,z,,,,,11,0,44,3,684.1557992000016,,684.1417610000062,684.1557992000016,685.1561857000052,685.1561857000052,685.1561857000052,685.1561857000052,685.1561857000052,686.1553038999991,686.1553038999991,687.0055749000021,z,1,0.8397375000058673,None,760188,001,2024-10-17_11h49.05.642,sequential _learning,2024.1.5,None,2024-10-17 11h49.14.939329 +0530,
150,v,,,,,11,1,45,1,687.0205747,,687.0063676999998,687.0205747,688.0208236000035,688.0208236000035,688.0208236000035,688.0208236000035,688.0208236000035,689.0197496000037,689.0197496000037,689.9208780000044,v,1,0.8915973999974085,None,760188,001,2024-10-17_11h49.05.642,sequential _learning,2024.1.5,None,2024-10-17 11h49.14.939329 +0530,
-50,x,,,,,11,2,46,0,689.9355721000029,,689.9216217000067,689.9355721000029,690.9351733000076,690.9351733000076,690.9351733000076,690.9351733000076,690.9351733000076,691.934490700005,691.934490700005,693.1182649999973,x,1,1.1772259999997914,None,760188,001,2024-10-17_11h49.05.642,sequential _learning,2024.1.5,None,2024-10-17 11h49.14.939329 +0530,
-150,z,,,,,11,3,47,3,693.1333525999944,,693.1190194999945,693.1333525999944,694.1330570999999,694.1330570999999,694.1330570999999,694.1330570999999,694.1330570999999,695.1325448999996,695.1325448999996,696.083348900007,z,1,0.9495382000022801,None,760188,001,2024-10-17_11h49.05.642,sequential _learning,2024.1.5,None,2024-10-17 11h49.14.939329 +0530,
50,c,,,,,12,0,48,2,696.0982425999973,,696.084159799997,696.0982425999973,697.0991423999949,697.0991423999949,697.0991423999949,697.0991423999949,697.0991423999949,698.0978515000024,698.0978515000024,698.7813216000068,c,1,0.673539499999606,None,760188,001,2024-10-17_11h49.05.642,sequential _learning,2024.1.5,None,2024-10-17 11h49.14.939329 +0530,
-50,x,,,,,12,1,49,0,698.7965621000039,,698.7819752000069,698.7965621000039,699.7965561000019,699.7965561000019,699.7965561000019,699.7965561000019,699.7965561000019,700.7965005000005,700.7965005000005,701.5457452999981,x,1,0.7473567999986699,None,760188,001,2024-10-17_11h49.05.642,sequential _learning,2024.1.5,None,2024-10-17 11h49.14.939329 +0530,
150,v,,,,,12,2,50,1,701.5614554000058,,701.5465640000039,701.5614554000058,702.5616199000069,702.5616199000069,702.5616199000069,702.5616199000069,702.5616199000069,703.5608472000022,703.5608472000022,704.3282087999978,v,1,0.7582703000080073,None,760188,001,2024-10-17_11h49.05.642,sequential _learning,2024.1.5,None,2024-10-17 11h49.14.939329 +0530,
50,c,,,,,12,3,51,2,704.3437912999943,,704.3291329000058,704.3437912999943,705.3426782000024,705.3426782000024,705.3426782000024,705.3426782000024,705.3426782000024,706.3424970000051,706.3424970000051,707.7096671000036,c,1,1.3567223999998532,None,760188,001,2024-10-17_11h49.05.642,sequential _learning,2024.1.5,None,2024-10-17 11h49.14.939329 +0530,
-150,z,,,,,13,0,52,3,707.7250974000053,,707.7108014999976,707.7250974000053,708.7245152999967,708.7245152999967,708.7245152999967,708.7245152999967,708.7245152999967,709.7233520000009,709.7233520000009,710.4736785999994,z,1,0.7446925999975065,None,760188,001,2024-10-17_11h49.05.642,sequential _learning,2024.1.5,None,2024-10-17 11h49.14.939329 +0530,
-150,z,,,,,13,1,53,3,710.4890778999979,,710.474475199997,710.4890778999979,711.4894415000017,711.4894415000017,711.4894415000017,711.4894415000017,711.4894415000017,712.4880837999954,712.4880837999954,713.3381434000039,z,1,0.8366186000057496,None,760188,001,2024-10-17_11h49.05.642,sequential _learning,2024.1.5,None,2024-10-17 11h49.14.939329 +0530,
150,v,,,,,13,2,54,1,713.3541267999972,,713.3389451999974,713.3541267999972,714.3538082000014,714.3538082000014,714.3538082000014,714.3538082000014,714.3538082000014,715.3532268999988,715.3532268999988,716.3533416999999,v,1,0.99428590000025,None,760188,001,2024-10-17_11h49.05.642,sequential _learning,2024.1.5,None,2024-10-17 11h49.14.939329 +0530,
150,v,,,,,13,3,55,1,716.3688397000078,,716.3540093000047,716.3688397000078,717.3685896999959,717.3685896999959,717.3685896999959,717.3685896999959,717.3685896999959,718.3680030999967,718.3680030999967,719.2518443000008,v,1,0.8813149000052363,None,760188,001,2024-10-17_11h49.05.642,sequential _learning,2024.1.5,None,2024-10-17 11h49.14.939329 +0530,
150,v,,,,,14,0,56,1,719.2669267000019,,719.2525734999945,719.2669267000019,720.2672351000074,720.2672351000074,720.2672351000074,720.2672351000074,720.2672351000074,721.2658383999951,721.2658383999951,722.0170669000072,v,1,0.7500099999888334,None,760188,001,2024-10-17_11h49.05.642,sequential _learning,2024.1.5,None,2024-10-17 11h49.14.939329 +0530,
50,c,,,,,14,1,57,2,722.0318945000035,,722.017924300002,722.0318945000035,723.0316531999997,723.0316531999997,723.0316531999997,723.0316531999997,723.0316531999997,724.0307598000072,724.0307598000072,724.9146464000078,c,1,0.8709286999946926,None,760188,001,2024-10-17_11h49.05.642,sequential _learning,2024.1.5,None,2024-10-17 11h49.14.939329 +0530,
150,v,,,,,14,2,58,1,724.9298373000056,,724.9153850000002,724.9298373000056,725.9298096999992,725.9298096999992,725.9298096999992,725.9298096999992,725.9298096999992,726.9299774999963,726.9299774999963,727.7296496000054,v,1,0.7888319000048796,None,760188,001,2024-10-17_11h49.05.642,sequential _learning,2024.1.5,None,2024-10-17 11h49.14.939329 +0530,
50,c,,,,,14,3,59,2,727.7449928999995,,727.7304450999945,727.7449928999995,728.7445790000056,728.7445790000056,728.7445790000056,728.7445790000056,728.7445790000056,729.7441657000018,729.7441657000018,730.6443760999973,c,1,0.8957279000023846,None,760188,001,2024-10-17_11h49.05.642,sequential _learning,2024.1.5,None,2024-10-17 11h49.14.939329 +0530,
-50,x,,,,,15,0,60,0,730.6594421000045,,730.6453009999968,730.6594421000045,731.6599789000029,731.6599789000029,731.6599789000029,731.6599789000029,731.6599789000029,732.6588862000062,732.6588862000062,733.4764475999982,x,1,0.8149801999970805,None,760188,001,2024-10-17_11h49.05.642,sequential _learning,2024.1.5,None,2024-10-17 11h49.14.939329 +0530,
-150,z,,,,,15,1,61,3,733.4911525000061,,733.4772493000055,733.4911525000061,734.4908467000059,734.4908467000059,734.4908467000059,734.4908467000059,734.4908467000059,735.4903445999953,735.4903445999953,736.4407831999997,z,1,0.9426098999974784,None,760188,001,2024-10-17_11h49.05.642,sequential _learning,2024.1.5,None,2024-10-17 11h49.14.939329 +0530,
150,v,,,,,15,2,62,1,736.4560350999964,,736.4416187000024,736.4560350999964,737.4563767000072,737.4563767000072,737.4563767000072,737.4563767000072,737.4563767000072,738.4550132000004,738.4550132000004,739.4387948000076,v,1,0.9785320999944815,None,760188,001,2024-10-17_11h49.05.642,sequential _learning,2024.1.5,None,2024-10-17 11h49.14.939329 +0530,
150,v,,,,,15,3,63,1,739.4540575999999,,739.4398374000011,739.4540575999999,740.4540834000072,740.4540834000072,740.4540834000072,740.4540834000072,740.4540834000072,741.4529326000047,741.4529326000047,742.489477199997,v,1,1.0260945999907563,None,760188,001,2024-10-17_11h49.05.642,sequential _learning,2024.1.5,None,2024-10-17 11h49.14.939329 +0530,
-150,z,,,,,16,0,64,3,742.5028394999972,,742.4902795999951,742.5028394999972,743.5029897000059,743.5029897000059,743.5029897000059,743.5029897000059,743.5029897000059,744.5013063000079,744.5013063000079,745.3187502000073,z,1,0.8127147999912268,None,760188,001,2024-10-17_11h49.05.642,sequential _learning,2024.1.5,None,2024-10-17 11h49.14.939329 +0530,
50,c,,,,,16,1,65,2,745.333725000004,,745.3195036999969,745.333725000004,746.3335613999952,746.3335613999952,746.3335613999952,746.3335613999952,746.3335613999952,747.3330605999945,747.3330605999945,748.1829699999944,c,1,0.8435880000033649,None,760188,001,2024-10-17_11h49.05.642,sequential _learning,2024.1.5,None,2024-10-17 11h49.14.939329 +0530,
50,c,,,,,16,2,66,2,748.1986275999952,,748.1837350999995,748.1986275999952,749.1983901000058,749.1983901000058,749.1983901000058,749.1983901000058,749.1983901000058,750.1976767000015,750.1976767000015,751.0643318999937,c,1,0.8539310000051046,None,760188,001,2024-10-17_11h49.05.642,sequential _learning,2024.1.5,None,2024-10-17 11h49.14.939329 +0530,
-150,z,,,,,16,3,67,3,751.0799147000071,,751.0650668000017,751.0799147000071,752.0635545999976,752.0635545999976,752.0635545999976,752.0635545999976,752.0804273999966,753.0789353,753.0789353,754.1128962999937,z,1,1.0309766000136733,None,760188,001,2024-10-17_11h49.05.642,sequential _learning,2024.1.5,None,2024-10-17 11h49.14.939329 +0530,
150,v,,,,,17,0,68,1,754.1279417000042,,754.1136077999981,754.1279417000042,755.1279159999976,755.1279159999976,755.1279159999976,755.1279159999976,755.1279159999976,756.1273368999973,756.1273368999973,757.1609935000015,v,1,1.0253837999916868,None,760188,001,2024-10-17_11h49.05.642,sequential _learning,2024.1.5,None,2024-10-17 11h49.14.939329 +0530,
50,c,,,,,17,1,69,2,757.1759989999991,,757.1617428000027,757.1759989999991,758.1765597000049,758.1765597000049,758.1765597000049,758.1765597000049,758.1765597000049,759.1751051000028,759.1751051000028,760.2586149999988,c,1,1.0747754000040004,None,760188,001,2024-10-17_11h49.05.642,sequential _learning,2024.1.5,None,2024-10-17 11h49.14.939329 +0530,
-150,z,,,,,17,2,70,3,760.2740782000037,,760.2594260000042,760.2740782000037,761.2576292000012,761.2576292000012,761.2576292000012,761.2576292000012,761.273969300004,762.2728992000048,762.2728992000048,763.2574515000015,z,1,0.9713400000036927,None,760188,001,2024-10-17_11h49.05.642,sequential _learning,2024.1.5,None,2024-10-17 11h49.14.939329 +0530,
50,c,,,,,17,3,71,2,763.2723957999988,,763.2582571999956,763.2723957999988,764.2720996999997,764.2720996999997,764.2720996999997,764.2720996999997,764.2720996999997,765.2714069000067,765.2714069000067,766.7220515999943,c,1,1.4460238000028767,None,760188,001,2024-10-17_11h49.05.642,sequential _learning,2024.1.5,None,2024-10-17 11h49.14.939329 +0530,
-50,x,,,,,18,0,72,0,766.7366907999967,,766.7229916000069,766.7366907999967,767.7365329000022,767.7365329000022,767.7365329000022,767.7365329000022,767.7365329000022,768.7366337999993,768.7366337999993,769.5528023000079,x,1,0.8004464999976335,None,760188,001,2024-10-17_11h49.05.642,sequential _learning,2024.1.5,None,2024-10-17 11h49.14.939329 +0530,
-50,x,,,,,18,1,73,0,769.5683964000054,,769.5535326999961,769.5683964000054,770.551523400005,770.551523400005,770.551523400005,770.551523400005,770.5678940000071,771.5675119999942,771.5675119999942,772.2346264999942,x,1,0.6518654000101378,None,760188,001,2024-10-17_11h49.05.642,sequential _learning,2024.1.5,None,2024-10-17 11h49.14.939329 +0530,
150,v,,,,,18,2,74,1,772.2498441000062,,772.2354525999981,772.2498441000062,773.2499122000008,773.2499122000008,773.2499122000008,773.2499122000008,773.2499122000008,774.2491334999941,774.2491334999941,775.1334119999956,v,1,0.8675179999991087,None,760188,001,2024-10-17_11h49.05.642,sequential _learning,2024.1.5,None,2024-10-17 11h49.14.939329 +0530,
-150,z,,,,,18,3,75,3,775.1484243000014,,775.1341795000044,775.1484243000014,776.1487788999948,776.1487788999948,776.1487788999948,776.1487788999948,776.1487788999948,777.147106400007,777.147106400007,777.9812654999987,z,1,0.8321475999982795,None,760188,001,2024-10-17_11h49.05.642,sequential _learning,2024.1.5,None,2024-10-17 11h49.14.939329 +0530,
150,v,,,,,19,0,76,1,777.9960903000028,,777.9820459000039,777.9960903000028,778.9959451000032,778.9959451000032,778.9959451000032,778.9959451000032,778.9959451000032,779.9953231999971,779.9953231999971,780.762167199995,v,1,0.7530454999941867,None,760188,001,2024-10-17_11h49.05.642,sequential _learning,2024.1.5,None,2024-10-17 11h49.14.939329 +0530,
-150,z,,,,,19,1,77,3,780.7778955999966,,780.7629121000064,780.7778955999966,781.7612171999936,781.7612171999936,781.7612171999936,781.7612171999936,781.7784860999964,782.777136699995,782.777136699995,783.593858399996,z,1,0.8017159000009997,None,760188,001,2024-10-17_11h49.05.642,sequential _learning,2024.1.5,None,2024-10-17 11h49.14.939329 +0530,
-50,x,,,,,19,2,78,0,783.6093932000076,,783.5946148999938,783.6093932000076,784.6094222999964,784.6094222999964,784.6094222999964,784.6094222999964,784.6094222999964,785.6088837999996,785.6088837999996,786.3589401000063,x,1,0.7423676000034902,None,760188,001,2024-10-17_11h49.05.642,sequential _learning,2024.1.5,None,2024-10-17 11h49.14.939329 +0530,
50,c,,,,,19,3,79,2,786.3742792999983,,786.3598860000056,786.3742792999983,787.3742750999954,787.3742750999954,787.3742750999954,787.3742750999954,787.3742750999954,788.3731257000036,788.3731257000036,789.3072332000011,c,1,0.9325701000052504,None,760188,001,2024-10-17_11h49.05.642,sequential _learning,2024.1.5,None,2024-10-17 11h49.14.939329 +0530,
-150,z,,,,,20,0,80,3,789.3224236999959,,789.3079883000028,789.3224236999959,790.3221137000073,790.3221137000073,790.3221137000073,790.3221137000073,790.3221137000073,791.3216534999956,791.3216534999956,792.2384942000062,z,1,0.9088326999917626,None,760188,001,2024-10-17_11h49.05.642,sequential _learning,2024.1.5,None,2024-10-17 11h49.14.939329 +0530,
