stair.thisTrialN,stair.stepSize,stair.intensity,thisRow.t,notes,trial.started,fixation.started,grating.started,key_resp.started,fixation.stopped,grating.stopped,trial.stopped,corrAns,tilt,key_resp.corr,stair.response,key_resp.rt,participant,session,date,expName,psychopyVersion,frameRate,expStart,
0,2,10.0,0.021438000025227666,,0.004198100010398775,0.021438000025227666,0.5586926999967545,0.5586926999967545,0.5719849999877624,0.8726275999797508,1.7110927000176162,left,-10.0,0,0,1.1430061000282876,026472,001,2024-09-06_12h44.31.751,adaptive_staircasepsy,2024.1.5,None,2024-09-06 12h44.36.123286 +0530,
1,2,12.0,1.7204742999747396,,1.711211399990134,1.7204742999747396,2.2218602999928407,2.2218602999928407,2.2218602999928407,2.520732200006023,2.8395117999752983,right,12.0,0,0,0.6051527999807149,026472,001,2024-09-06_12h44.31.751,adaptive_staircasepsy,2024.1.5,None,2024-09-06 12h44.36.123286 +0530,
2,2,14.0,2.8531178000266664,,2.839603399974294,2.8531178000266664,3.3539384999894537,3.3539384999894537,3.3539384999894537,3.6547797999810427,3.771191000007093,left,-14.0,0,0,0.4100036000018008,026472,001,2024-09-06_12h44.31.751,adaptive_staircasepsy,2024.1.5,None,2024-09-06 12h44.36.123286 +0530,
3,2,16.0,3.786747300007846,,3.7712619000230916,3.786747300007846,4.2869204999879,4.2869204999879,4.2869204999879,4.586556399997789,4.671602200018242,right,16.0,0,0,0.38313660002313554,026472,001,2024-09-06_12h44.31.751,adaptive_staircasepsy,2024.1.5,None,2024-09-06 12h44.36.123286 +0530,
4,2,18.0,4.686021699977573,,4.671705899992958,4.686021699977573,5.18684390000999,5.18684390000999,5.18684390000999,5.485758099996019,5.604007499990985,right,18.0,0,0,0.4092325000092387,026472,001,2024-09-06_12h44.31.751,adaptive_staircasepsy,2024.1.5,None,2024-09-06 12h44.36.123286 +0530,
5,2,20.0,5.618940600019414,,5.604105399979744,5.618940600019414,6.119051899993792,6.119051899993792,6.119051899993792,6.42053639999358,6.53734350000741,right,20.0,0,0,0.4160384999704547,026472,001,2024-09-06_12h44.31.751,adaptive_staircasepsy,2024.1.5,None,2024-09-06 12h44.36.123286 +0530,
6,2,20.0,6.550973800010979,,6.537443500012159,6.550973800010979,7.051584900007583,7.051584900007583,7.051584900007583,7.351423399988562,7.420336499984842,right,20.0,0,0,0.3645927000325173,026472,001,2024-09-06_12h44.31.751,adaptive_staircasepsy,2024.1.5,None,2024-09-06 12h44.36.123286 +0530,
7,2,20.0,7.434051099990029,,7.420446300006006,7.434051099990029,7.934564600000158,7.934564600000158,7.934564600000158,8.234811900008935,8.402010800025892,left,-20.0,0,0,0.46155319997342303,026472,001,2024-09-06_12h44.31.751,adaptive_staircasepsy,2024.1.5,None,2024-09-06 12h44.36.123286 +0530,
8,2,20.0,8.416752399993129,,8.402110799972434,8.416752399993129,8.916991600010078,8.916991600010078,8.916991600010078,9.216977400006726,9.450936699984595,left,-20.0,0,0,0.5179180999984965,026472,001,2024-09-06_12h44.31.751,adaptive_staircasepsy,2024.1.5,None,2024-09-06 12h44.36.123286 +0530,
9,2,20.0,9.466548099997453,,9.451035599980969,9.466548099997453,9.949746700003743,9.949746700003743,9.966183100012131,10.250173099979293,10.418239500024356,right,20.0,0,0,0.462881000014022,026472,001,2024-09-06_12h44.31.751,adaptive_staircasepsy,2024.1.5,None,2024-09-06 12h44.36.123286 +0530,
10,2,20.0,10.432521599985193,,10.418360200012103,10.432521599985193,10.932672899973113,10.932672899973113,10.932672899973113,11.232533400005195,11.699960099998862,right,20.0,0,0,0.7587048999848776,026472,001,2024-09-06_12h44.31.751,adaptive_staircasepsy,2024.1.5,None,2024-09-06 12h44.36.123286 +0530,
11,2,20.0,11.714932599978056,,11.700052500003949,11.714932599978056,12.215152400021907,12.215152400021907,12.215152400021907,12.515790199977346,12.782033000024967,right,20.0,0,0,0.5591366000007838,026472,001,2024-09-06_12h44.31.751,adaptive_staircasepsy,2024.1.5,None,2024-09-06 12h44.36.123286 +0530,
12,2,20.0,12.796914300008211,,12.782115900015924,12.796914300008211,13.296910499979276,13.296910499979276,13.296910499979276,13.596890999993775,13.697157400019933,right,20.0,0,0,0.3846353000262752,026472,001,2024-09-06_12h44.31.751,adaptive_staircasepsy,2024.1.5,None,2024-09-06 12h44.36.123286 +0530,
13,2,20.0,13.713554300018586,,13.697227799973916,13.713554300018586,14.197315700002946,14.197315700002946,14.21301459998358,14.496310900023673,14.64633399999002,left,-20.0,0,0,0.4393532000249252,026472,001,2024-09-06_12h44.31.751,adaptive_staircasepsy,2024.1.5,None,2024-09-06 12h44.36.123286 +0530,
14,2,20.0,14.663189699989744,,14.646407799969893,14.663189699989744,15.145838399999775,15.145838399999775,15.162050799990539,15.445601799990982,15.56321689998731,left,-20.0,0,0,0.40588879998540506,026472,001,2024-09-06_12h44.31.751,adaptive_staircasepsy,2024.1.5,None,2024-09-06 12h44.36.123286 +0530,
15,2,20.0,15.578978099976666,,15.563282100018114,15.578978099976666,16.078572699974757,16.078572699974757,16.078572699974757,16.37917730002664,16.613176400016528,left,-20.0,0,0,0.525369499984663,026472,001,2024-09-06_12h44.31.751,adaptive_staircasepsy,2024.1.5,None,2024-09-06 12h44.36.123286 +0530,
16,1,20.0,16.627905800007284,,16.613252100010868,16.627905800007284,17.12873739999486,17.12873739999486,17.12873739999486,17.427309999999125,17.47928570001386,left,-20.0,1,1,0.3439595999661833,026472,001,2024-09-06_12h44.31.751,adaptive_staircasepsy,2024.1.5,None,2024-09-06 12h44.36.123286 +0530,
17,1,19.0,17.494293200026732,,17.479361800011247,17.494293200026732,17.994641299999785,17.994641299999785,17.994641299999785,18.29353089997312,18.594491800002288,left,-19.0,0,0,0.5854131999658421,026472,001,2024-09-06_12h44.31.751,adaptive_staircasepsy,2024.1.5,None,2024-09-06 12h44.36.123286 +0530,
18,1,20.0,18.609975799976382,,18.594552399998065,18.609975799976382,19.092884699988645,19.092884699988645,19.112071399984416,19.393702599976677,19.62777979997918,left,-20.0,0,0,0.5203815000131726,026472,001,2024-09-06_12h44.31.751,adaptive_staircasepsy,2024.1.5,None,2024-09-06 12h44.36.123286 +0530,
19,1,20.0,19.642647499975283,,19.627854000020307,19.642647499975283,20.14310879999539,20.14310879999539,20.14310879999539,20.44218999997247,20.610974000010174,right,20.0,0,0,0.45082169998204336,026472,001,2024-09-06_12h44.31.751,adaptive_staircasepsy,2024.1.5,None,2024-09-06 12h44.36.123286 +0530,
20,1,20.0,20.625964400009252,,20.611058700014837,20.625964400009252,21.125919300015084,21.125919300015084,21.125919300015084,21.42472439998528,21.542812199972104,right,20.0,0,0,0.40814250003313646,026472,001,2024-09-06_12h44.31.751,adaptive_staircasepsy,2024.1.5,None,2024-09-06 12h44.36.123286 +0530,
21,1,20.0,21.557928299997002,,21.54288030002499,21.557928299997002,22.058021800010465,22.058021800010465,22.058021800010465,22.358360300015192,22.458152999985032,left,-20.0,0,0,0.3904416000004858,026472,001,2024-09-06_12h44.31.751,adaptive_staircasepsy,2024.1.5,None,2024-09-06 12h44.36.123286 +0530,
22,1,20.0,22.47448670002632,,22.458255400008056,22.47448670002632,22.959652799996547,22.959652799996547,22.974308100005146,23.27465159998974,23.408486299973447,left,-20.0,0,0,0.435878100048285,026472,001,2024-09-06_12h44.31.751,adaptive_staircasepsy,2024.1.5,None,2024-09-06 12h44.36.123286 +0530,
23,1,20.0,23.423956700018607,,23.408571299980395,23.423956700018607,23.924229500000365,23.924229500000365,23.924229500000365,24.224711899994873,24.408346500014886,right,20.0,0,0,0.47841519996291026,026472,001,2024-09-06_12h44.31.751,adaptive_staircasepsy,2024.1.5,None,2024-09-06 12h44.36.123286 +0530,
24,1,20.0,24.423533599998336,,24.40844389999984,24.423533599998336,24.906896099972073,24.906896099972073,24.923054300015792,25.205940500018187,25.50632470002165,right,20.0,0,0,0.5833589000394568,026472,001,2024-09-06_12h44.31.751,adaptive_staircasepsy,2024.1.5,None,2024-09-06 12h44.36.123286 +0530,
25,1,20.0,25.52251119998982,,25.506394399970304,25.52251119998982,26.00616579997586,26.00616579997586,26.022631799976807,26.30492680001771,26.407053700007964,right,20.0,0,0,0.3977735999505967,026472,001,2024-09-06_12h44.31.751,adaptive_staircasepsy,2024.1.5,None,2024-09-06 12h44.36.123286 +0530,
26,1,20.0,26.42193790001329,,26.407136299996637,26.42193790001329,26.922317399992608,26.922317399992608,26.922317399992608,27.221726400020998,27.35797279997496,left,-20.0,0,0,0.4322425999562256,026472,001,2024-09-06_12h44.31.751,adaptive_staircasepsy,2024.1.5,None,2024-09-06 12h44.36.123286 +0530,
27,1,20.0,27.371735099994112,,27.358042099978775,27.371735099994112,27.87134569999762,27.87134569999762,27.87134569999762,28.170710899983533,28.322076499985997,left,-20.0,0,0,0.43574280000757426,026472,001,2024-09-06_12h44.31.751,adaptive_staircasepsy,2024.1.5,None,2024-09-06 12h44.36.123286 +0530,
28,1,20.0,28.33773879997898,,28.32216250000056,28.33773879997898,28.836882899980992,28.836882899980992,28.836882899980992,29.137115099991206,29.304879600007553,right,20.0,0,0,0.4517623000429012,026472,001,2024-09-06_12h44.31.751,adaptive_staircasepsy,2024.1.5,None,2024-09-06 12h44.36.123286 +0530,
29,1,20.0,29.320157599984668,,29.30495780002093,29.320157599984668,29.8205543999793,29.8205543999793,29.8205543999793,30.120976499980316,30.387059799977578,right,20.0,0,0,0.5583460000343621,026472,001,2024-09-06_12h44.31.751,adaptive_staircasepsy,2024.1.5,None,2024-09-06 12h44.36.123286 +0530,
30,1,20.0,30.403127199970186,,30.387134000018705,30.403127199970186,30.902501499978825,30.902501499978825,30.902501499978825,31.20324800000526,31.419655099976808,left,-20.0,0,0,0.5119635000010021,026472,001,2024-09-06_12h44.31.751,adaptive_staircasepsy,2024.1.5,None,2024-09-06 12h44.36.123286 +0530,
31,1,20.0,31.435763699992094,,31.41996480000671,31.435763699992094,31.919754099973943,31.919754099973943,31.935736000014003,32.23629349999828,32.41949260002002,left,-20.0,0,0,0.48624429997289553,026472,001,2024-09-06_12h44.31.751,adaptive_staircasepsy,2024.1.5,None,2024-09-06 12h44.36.123286 +0530,
32,1,20.0,32.43496609997237,,32.419566399999894,32.43496609997237,32.917840700014494,32.917840700014494,32.93472810002277,33.21781200001715,33.55130290001398,left,-20.0,0,0,0.6202158000087366,026472,001,2024-09-06_12h44.31.751,adaptive_staircasepsy,2024.1.5,None,2024-09-06 12h44.36.123286 +0530,
33,1,20.0,33.567725499975495,,33.55137569998624,33.567725499975495,34.066849900002126,34.066849900002126,34.066849900002126,34.36788069998147,34.701117800024804,left,-20.0,0,0,0.6205060000065714,026472,001,2024-09-06_12h44.31.751,adaptive_staircasepsy,2024.1.5,None,2024-09-06 12h44.36.123286 +0530,
34,1,20.0,34.71698299999116,,34.701186800026335,34.71698299999116,35.21632419998059,35.21632419998059,35.21632419998059,35.51704339997377,35.66760929999873,left,-20.0,0,0,0.4369330999907106,026472,001,2024-09-06_12h44.31.751,adaptive_staircasepsy,2024.1.5,None,2024-09-06 12h44.36.123286 +0530,
35,1,20.0,35.683148799987976,,35.66769510001177,35.683148799987976,36.18213420000393,36.18213420000393,36.18213420000393,36.48266939999303,36.684004899987485,right,20.0,0,0,0.5008378000347875,026472,001,2024-09-06_12h44.31.751,adaptive_staircasepsy,2024.1.5,None,2024-09-06 12h44.36.123286 +0530,
36,1,20.0,36.699166500009596,,36.68408520001685,36.699166500009596,37.18388440000126,37.18388440000126,37.201454999973066,37.482110299984924,37.59957119997125,left,-20.0,0,0,0.41266269999323413,026472,001,2024-09-06_12h44.31.751,adaptive_staircasepsy,2024.1.5,None,2024-09-06 12h44.36.123286 +0530,
37,1,20.0,37.61531159997685,,37.599639699968975,37.61531159997685,38.11433609999949,38.11433609999949,38.11433609999949,38.41501469997456,38.48275169997942,right,20.0,0,0,0.3587768000434153,026472,001,2024-09-06_12h44.31.751,adaptive_staircasepsy,2024.1.5,None,2024-09-06 12h44.36.123286 +0530,
38,1,20.0,38.498457800014876,,38.482844799989834,38.498457800014876,38.99829800002044,38.99829800002044,38.99829800002044,39.29727300000377,39.41458659997443,left,-20.0,1,1,0.40856289997464046,026472,001,2024-09-06_12h44.31.751,adaptive_staircasepsy,2024.1.5,None,2024-09-06 12h44.36.123286 +0530,
39,1,20.0,39.43112079997081,,39.414648699981626,39.43112079997081,39.93076580000343,39.93076580000343,39.93076580000343,40.246831899974495,40.39793999999529,left,-20.0,0,0,0.46034099999815226,026472,001,2024-09-06_12h44.31.751,adaptive_staircasepsy,2024.1.5,None,2024-09-06 12h44.36.123286 +0530,
40,1,20.0,40.41277749999426,,40.398018300009426,40.41277749999426,40.913164099969435,40.913164099969435,40.913164099969435,41.21305229997961,41.264495500014164,left,-20.0,0,0,0.34823589998995885,026472,001,2024-09-06_12h44.31.751,adaptive_staircasepsy,2024.1.5,None,2024-09-06 12h44.36.123286 +0530,
41,1,20.0,41.2787740000058,,41.264568499987945,41.2787740000058,41.77945680002449,41.77945680002449,41.77945680002449,42.07849819998955,42.21333409997169,right,20.0,0,0,0.42308129998855293,026472,001,2024-09-06_12h44.31.751,adaptive_staircasepsy,2024.1.5,None,2024-09-06 12h44.36.123286 +0530,
42,1,20.0,42.22840580000775,,42.21339609997813,42.22840580000775,42.71147749997908,42.71147749997908,42.72924130002502,43.0120837999857,43.33009860001039,left,-20.0,0,0,0.6176051000365987,026472,001,2024-09-06_12h44.31.751,adaptive_staircasepsy,2024.1.5,None,2024-09-06 12h44.36.123286 +0530,
43,1,20.0,43.34427900001174,,43.33017640002072,43.34427900001174,43.845378199999686,43.845378199999686,43.845378199999686,44.161472900013905,44.54554319998715,right,20.0,0,0,0.6931434000143781,026472,001,2024-09-06_12h44.31.751,adaptive_staircasepsy,2024.1.5,None,2024-09-06 12h44.36.123286 +0530,
44,1,20.0,44.56082790001528,,44.54561729996931,44.56082790001528,45.06034239998553,45.06034239998553,45.06034239998553,45.36043770000106,45.611785600020085,left,-20.0,0,0,0.5448828999651596,026472,001,2024-09-06_12h44.31.751,adaptive_staircasepsy,2024.1.5,None,2024-09-06 12h44.36.123286 +0530,
45,1,20.0,45.62712040002225,,45.61185350001324,45.62712040002225,46.12612710002577,46.12612710002577,46.12612710002577,46.42642410000553,46.57701489998726,right,20.0,0,0,0.4378506999928504,026472,001,2024-09-06_12h44.31.751,adaptive_staircasepsy,2024.1.5,None,2024-09-06 12h44.36.123286 +0530,
46,1,20.0,46.59224099997664,,46.5770857000025,46.59224099997664,47.09290519997012,47.09290519997012,47.09290519997012,47.391952299978584,47.509516999998596,left,-20.0,0,0,0.4063062999630347,026472,001,2024-09-06_12h44.31.751,adaptive_staircasepsy,2024.1.5,None,2024-09-06 12h44.36.123286 +0530,
47,1,20.0,47.52547090000007,,47.50983100000303,47.52547090000007,48.00863970001228,48.00863970001228,48.02497470000526,48.3086248000036,48.50943570001982,left,-20.0,1,1,0.4951528999954462,026472,001,2024-09-06_12h44.31.751,adaptive_staircasepsy,2024.1.5,None,2024-09-06 12h44.36.123286 +0530,
48,1,20.0,48.52476790000219,,48.50950049998937,48.52476790000219,49.025188600004185,49.025188600004185,49.025188600004185,49.3238524000044,49.7418302000151,right,20.0,0,0,0.7053841999731958,026472,001,2024-09-06_12h44.31.751,adaptive_staircasepsy,2024.1.5,None,2024-09-06 12h44.36.123286 +0530,
49,1,20.0,49.7571261000121,,49.741908100026194,49.7571261000121,50.24012169998605,50.24012169998605,50.25743769999826,50.54098639998119,50.64063929999247,right,20.0,0,0,0.3847838999936357,026472,001,2024-09-06_12h44.31.751,adaptive_staircasepsy,2024.1.5,None,2024-09-06 12h44.36.123286 +0530,
50,1,20.0,50.657534800004214,,50.64071479998529,50.657534800004214,51.14036409999244,51.14036409999244,51.15662640001392,51.440497700008564,51.60751260002144,right,20.0,0,0,0.4564791999873705,026472,001,2024-09-06_12h44.31.751,adaptive_staircasepsy,2024.1.5,None,2024-09-06 12h44.36.123286 +0530,
51,1,20.0,51.62233230000129,,51.607578700000886,51.62233230000129,52.123342100006994,52.123342100006994,52.123342100006994,52.421753800008446,52.40694620000431,left,-20.0,0,0,0.2727500000037253,026472,001,2024-09-06_12h44.31.751,adaptive_staircasepsy,2024.1.5,None,2024-09-06 12h44.36.123286 +0530,
52,1,20.0,52.421753800008446,,52.4070108999731,52.421753800008446,52.92235120001715,52.92235120001715,52.92235120001715,53.22280709998449,53.33993860002374,right,20.0,0,0,0.4063103999942541,026472,001,2024-09-06_12h44.31.751,adaptive_staircasepsy,2024.1.5,None,2024-09-06 12h44.36.123286 +0530,
53,1,20.0,53.3555769000086,,53.34000919997925,53.3555769000086,53.85582910000812,53.85582910000812,53.85582910000812,54.170872499991674,54.18976570002269,left,-20.0,0,0,0.3250937999691814,026472,001,2024-09-06_12h44.31.751,adaptive_staircasepsy,2024.1.5,None,2024-09-06 12h44.36.123286 +0530,
54,1,20.0,54.2058736999752,,54.1898362999782,54.2058736999752,54.70452929998282,54.70452929998282,54.720946500019636,55.00565499998629,55.08853479998652,right,20.0,0,0,0.3692929000244476,026472,001,2024-09-06_12h44.31.751,adaptive_staircasepsy,2024.1.5,None,2024-09-06 12h44.36.123286 +0530,
55,1,20.0,55.10414489998948,,55.088598700007424,55.10414489998948,55.603992699994706,55.603992699994706,55.603992699994706,55.9035383000155,56.07095389999449,right,20.0,0,0,0.45472560002235696,026472,001,2024-09-06_12h44.31.751,adaptive_staircasepsy,2024.1.5,None,2024-09-06 12h44.36.123286 +0530,
56,1,20.0,56.08705289999489,,56.071022399992216,56.08705289999489,56.56968269997742,56.56968269997742,56.58651509997435,56.87008959997911,57.00546840002062,left,-20.0,0,0,0.42894229997182265,026472,001,2024-09-06_12h44.31.751,adaptive_staircasepsy,2024.1.5,None,2024-09-06 12h44.36.123286 +0530,
57,1,20.0,57.01899730000878,,57.005612000008114,57.01899730000878,57.51940019999165,57.51940019999165,57.51940019999165,57.82034299999941,57.88636379997479,left,-20.0,0,0,0.3551267000148073,026472,001,2024-09-06_12h44.31.751,adaptive_staircasepsy,2024.1.5,None,2024-09-06 12h44.36.123286 +0530,
58,1,20.0,57.90241719997721,,57.88642880000407,57.90241719997721,58.40177830000175,58.40177830000175,58.40177830000175,58.70192969997879,58.87036549998447,left,-20.0,0,0,0.4663002000306733,026472,001,2024-09-06_12h44.31.751,adaptive_staircasepsy,2024.1.5,None,2024-09-06 12h44.36.123286 +0530,
59,1,20.0,58.88435349997599,,58.870448699977715,58.88435349997599,59.38479679997545,59.38479679997545,59.38479679997545,59.68546549999155,59.769121500023175,right,20.0,0,0,0.38288759998977184,026472,001,2024-09-06_12h44.31.751,adaptive_staircasepsy,2024.1.5,None,2024-09-06 12h44.36.123286 +0530,
60,1,20.0,59.78398820001166,,59.76920019998215,59.78398820001166,60.284701799973845,60.284701799973845,60.284701799973845,60.58363150001969,60.70124229998328,left,-20.0,0,0,0.4089996999828145,026472,001,2024-09-06_12h44.31.751,adaptive_staircasepsy,2024.1.5,None,2024-09-06 12h44.36.123286 +0530,
61,1,20.0,60.71686829999089,,60.70132619998185,60.71686829999089,61.21674639999401,61.21674639999401,61.21674639999401,61.51685499999439,61.61820770002669,right,20.0,0,0,0.3955233999877237,026472,001,2024-09-06_12h44.31.751,adaptive_staircasepsy,2024.1.5,None,2024-09-06 12h44.36.123286 +0530,
62,1,20.0,61.6339910000097,,61.61851739999838,61.6339910000097,62.13270030001877,62.13270030001877,62.13270030001877,62.433075200009625,62.534406599996146,left,-20.0,0,0,0.3852642999845557,026472,001,2024-09-06_12h44.31.751,adaptive_staircasepsy,2024.1.5,None,2024-09-06 12h44.36.123286 +0530,
63,1,20.0,62.54970680002589,,62.53447920002509,62.54970680002589,63.048509799991734,63.048509799991734,63.048509799991734,63.34881180000957,63.61720520001836,left,-20.0,0,0,0.5659624999971129,026472,001,2024-09-06_12h44.31.751,adaptive_staircasepsy,2024.1.5,None,2024-09-06 12h44.36.123286 +0530,
64,1,20.0,63.6314176999731,,63.61730500002159,63.6314176999731,64.13216450001346,64.13216450001346,64.13216450001346,64.43113839998841,64.54858110001078,right,20.0,0,0,0.40499429998453707,026472,001,2024-09-06_12h44.31.751,adaptive_staircasepsy,2024.1.5,None,2024-09-06 12h44.36.123286 +0530,
65,1,20.0,64.56511909997789,,64.54865469998913,64.56511909997789,65.06408320000628,65.06408320000628,65.06408320000628,65.36505979998037,65.64821459999075,right,20.0,0,0,0.5806786000030115,026472,001,2024-09-06_12h44.31.751,adaptive_staircasepsy,2024.1.5,None,2024-09-06 12h44.36.123286 +0530,
66,1,20.0,65.66362100001425,,65.64828429999761,65.66362100001425,66.16352000000188,66.16352000000188,66.16352000000188,66.46395519998623,66.56441290001385,left,-20.0,0,0,0.3903903999598697,026472,001,2024-09-06_12h44.31.751,adaptive_staircasepsy,2024.1.5,None,2024-09-06 12h44.36.123286 +0530,
67,1,20.0,66.58012009999948,,66.5644904000219,66.58012009999948,67.0793862999999,67.0793862999999,67.0793862999999,67.37995709996903,67.49720819998765,left,-20.0,0,0,0.41428579995408654,026472,001,2024-09-06_12h44.31.751,adaptive_staircasepsy,2024.1.5,None,2024-09-06 12h44.36.123286 +0530,
68,1,20.0,67.51249170000665,,67.4972733000177,67.51249170000665,67.9954322000267,67.9954322000267,68.01228470000206,68.29590379999718,68.41317100002198,left,-20.0,0,0,0.4015107999439351,026472,001,2024-09-06_12h44.31.751,adaptive_staircasepsy,2024.1.5,None,2024-09-06 12h44.36.123286 +0530,
69,1,20.0,68.42866480001248,,68.41325570002664,68.42866480001248,68.91167230001884,68.91167230001884,68.92963440000312,69.21213940001326,69.31551609997405,right,20.0,0,0,0.4015574000077322,026472,001,2024-09-06_12h44.31.751,adaptive_staircasepsy,2024.1.5,None,2024-09-06 12h44.36.123286 +0530,
70,1,20.0,69.32984690001467,,69.3156526000239,69.32984690001467,69.82943510002224,69.82943510002224,69.82943510002224,70.14596699998947,70.26287390000653,left,-20.0,0,0,0.42958649998763576,026472,001,2024-09-06_12h44.31.751,adaptive_staircasepsy,2024.1.5,None,2024-09-06 12h44.36.123286 +0530,
71,1,20.0,70.27837539999746,,70.26295679999748,70.27837539999746,70.7779307999881,70.7779307999881,70.7948382999748,71.07729559997097,71.14505320001626,right,20.0,0,0,0.35160980001091957,026472,001,2024-09-06_12h44.31.751,adaptive_staircasepsy,2024.1.5,None,2024-09-06 12h44.36.123286 +0530,
72,1,20.0,71.1601251999964,,71.14512170001399,71.1601251999964,71.66082410002127,71.66082410002127,71.66082410002127,71.95966549997684,72.09472579997964,right,20.0,0,0,0.42652480001561344,026472,001,2024-09-06_12h44.31.751,adaptive_staircasepsy,2024.1.5,None,2024-09-06 12h44.36.123286 +0530,
73,1,20.0,72.10927740001353,,72.09480309998617,72.10927740001353,72.61037660000147,72.61037660000147,72.61037660000147,72.9111098999856,73.04413300001761,left,-20.0,0,0,0.42910839995602146,026472,001,2024-09-06_12h44.31.751,adaptive_staircasepsy,2024.1.5,None,2024-09-06 12h44.36.123286 +0530,
74,1,20.0,73.05926429998362,,73.04421820002608,73.05926429998362,73.55907529999968,73.55907529999968,73.55907529999968,73.8589727000217,73.99431729997741,left,-20.0,0,0,0.43165449996013194,026472,001,2024-09-06_12h44.31.751,adaptive_staircasepsy,2024.1.5,None,2024-09-06 12h44.36.123286 +0530,
75,1,20.0,74.00911709998036,,73.99439900001744,74.00911709998036,74.50891909998609,74.50891909998609,74.50891909998609,74.80824689997826,75.2420289000147,left,-20.0,0,0,0.7205133999814279,026472,001,2024-09-06_12h44.31.751,adaptive_staircasepsy,2024.1.5,None,2024-09-06 12h44.36.123286 +0530,
76,1,20.0,75.25783000001684,,75.24209910002537,75.25783000001684,75.75718610000331,75.75718610000331,75.75718610000331,76.05749839998316,76.2746190999751,right,20.0,0,0,0.5132263999548741,026472,001,2024-09-06_12h44.31.751,adaptive_staircasepsy,2024.1.5,None,2024-09-06 12h44.36.123286 +0530,
77,1,20.0,76.29111390002072,,76.27469559997553,76.29111390002072,76.77443450002465,76.77443450002465,76.7900974000222,77.07304109999677,77.29247709998162,right,20.0,0,0,0.5037868999643251,026472,001,2024-09-06_12h44.31.751,adaptive_staircasepsy,2024.1.5,None,2024-09-06 12h44.36.123286 +0530,
78,1,20.0,77.3064559000195,,77.29254499997478,77.3064559000195,77.80698479997227,77.80698479997227,77.80698479997227,78.10581340000499,78.22501860000193,left,-20.0,0,0,0.41456150001613423,026472,001,2024-09-06_12h44.31.751,adaptive_staircasepsy,2024.1.5,None,2024-09-06 12h44.36.123286 +0530,
79,1,20.0,78.23975140001858,,78.22509359999094,78.23975140001858,78.73898560000816,78.73898560000816,78.73898560000816,79.03884549997747,79.15656949998811,right,20.0,0,0,0.40323509997688234,026472,001,2024-09-06_12h44.31.751,adaptive_staircasepsy,2024.1.5,None,2024-09-06 12h44.36.123286 +0530,
80,1,20.0,79.17220139998244,,79.1566367999767,79.17220139998244,79.6552125000162,79.6552125000162,79.67234569997527,79.95545549999224,80.00592760002473,right,20.0,0,0,0.333834899996873,026472,001,2024-09-06_12h44.31.751,adaptive_staircasepsy,2024.1.5,None,2024-09-06 12h44.36.123286 +0530,
81,1,20.0,80.02191790001234,,80.0060172000085,80.02191790001234,80.52143760002218,80.52143760002218,80.52143760002218,80.82189119997201,80.97242740000365,left,-20.0,0,0,0.4435859000077471,026472,001,2024-09-06_12h44.31.751,adaptive_staircasepsy,2024.1.5,None,2024-09-06 12h44.36.123286 +0530,
82,1,20.0,80.9881629999727,,80.97248890000628,80.9881629999727,81.4876382999937,81.4876382999937,81.4876382999937,81.78725059999852,81.90463950001867,right,20.0,0,0,0.4038289999589324,026472,001,2024-09-06_12h44.31.751,adaptive_staircasepsy,2024.1.5,None,2024-09-06 12h44.36.123286 +0530,
83,1,20.0,81.92073979997076,,81.90471299999626,81.92073979997076,82.42023380001774,82.42023380001774,82.42023380001774,82.72018709999975,82.93720360001316,left,-20.0,0,0,0.501525399973616,026472,001,2024-09-06_12h44.31.751,adaptive_staircasepsy,2024.1.5,None,2024-09-06 12h44.36.123286 +0530,
84,1,20.0,82.95349899999565,,82.93727719999151,82.95349899999565,83.45276810001815,83.45276810001815,83.45276810001815,83.75307809998048,83.88691679999465,right,20.0,0,0,0.42998980003176257,026472,001,2024-09-06_12h44.31.751,adaptive_staircasepsy,2024.1.5,None,2024-09-06 12h44.36.123286 +0530,
85,1,20.0,83.90577249997295,,83.88699769997038,83.90577249997295,84.40375310002128,84.40375310002128,84.41923040000256,84.7021156999981,84.96974420000333,right,20.0,0,0,0.5552595999906771,026472,001,2024-09-06_12h44.31.751,adaptive_staircasepsy,2024.1.5,None,2024-09-06 12h44.36.123286 +0530,
86,1,20.0,84.98587969999062,,84.96981500001857,84.98587969999062,85.48469489999115,85.48469489999115,85.50320540001849,85.78491210000357,85.96926250000251,left,-20.0,0,0,0.47688959998777136,026472,001,2024-09-06_12h44.31.751,adaptive_staircasepsy,2024.1.5,None,2024-09-06 12h44.36.123286 +0530,
87,1,20.0,85.98439380002674,,85.96933910000371,85.98439380002674,86.48490570002468,86.48490570002468,86.48490570002468,86.78384599997662,86.98582479998004,left,-20.0,0,0,0.49787939997622743,026472,001,2024-09-06_12h44.31.751,adaptive_staircasepsy,2024.1.5,None,2024-09-06 12h44.36.123286 +0530,
88,1,20.0,87.00079999997979,,86.98589549999451,87.00079999997979,87.50044959998922,87.50044959998922,87.50044959998922,87.80068779998692,87.86917570000514,right,20.0,0,0,0.36684489995241165,026472,001,2024-09-06_12h44.31.751,adaptive_staircasepsy,2024.1.5,None,2024-09-06 12h44.36.123286 +0530,
89,1,20.0,87.88390459999209,,87.86926529998891,87.88390459999209,88.38365239999257,88.38365239999257,88.39987259998452,88.68293259997154,88.81817340000998,left,-20.0,0,0,0.429253299953416,026472,001,2024-09-06_12h44.31.751,adaptive_staircasepsy,2024.1.5,None,2024-09-06 12h44.36.123286 +0530,
90,1,20.0,88.83348329999717,,88.81824839999899,88.83348329999717,89.33365649997722,89.33365649997722,89.33365649997722,89.64982270001201,89.71659620001446,right,20.0,0,0,0.3744470999808982,026472,001,2024-09-06_12h44.31.751,adaptive_staircasepsy,2024.1.5,None,2024-09-06 12h44.36.123286 +0530,
91,1,20.0,89.7321809999994,,89.71668969996972,89.7321809999994,90.23155139997834,90.23155139997834,90.23155139997834,90.53221899998607,90.61626550002256,right,20.0,1,1,0.3762878999696113,026472,001,2024-09-06_12h44.31.751,adaptive_staircasepsy,2024.1.5,None,2024-09-06 12h44.36.123286 +0530,
92,1,20.0,90.63167550001526,,90.61633879999863,90.63167550001526,91.11585840000771,91.11585840000771,91.13195399998222,91.43193879997125,92.69850429997314,right,20.0,1,1,1.5707311000442132,026472,001,2024-09-06_12h44.31.751,adaptive_staircasepsy,2024.1.5,None,2024-09-06 12h44.36.123286 +0530,
93,1,20.0,92.71423759998288,,92.69858319999184,92.71423759998288,93.19654239999363,93.19654239999363,93.23020210000686,93.49627609999152,93.84781230002409,left,-20.0,0,0,0.639761800004635,026472,001,2024-09-06_12h44.31.751,adaptive_staircasepsy,2024.1.5,None,2024-09-06 12h44.36.123286 +0530,
94,1,20.0,93.86306920001516,,93.84787759999745,93.86306920001516,94.36270240001613,94.36270240001613,94.36270240001613,94.66194620000897,94.8803391000256,left,-20.0,0,0,0.5101840000133961,026472,001,2024-09-06_12h44.31.751,adaptive_staircasepsy,2024.1.5,None,2024-09-06 12h44.36.123286 +0530,
95,1,20.0,94.89574190002168,,94.88040129997535,94.89574190002168,95.3810515999794,95.3810515999794,95.39693139999872,95.67927419999614,95.99634559999686,right,20.0,0,0,0.60347269999329,026472,001,2024-09-06_12h44.31.751,adaptive_staircasepsy,2024.1.5,None,2024-09-06 12h44.36.123286 +0530,
96,1,20.0,96.01112949999515,,95.99641040002462,96.01112949999515,96.51216139999451,96.51216139999451,96.51216139999451,96.81144780002069,97.59447020001244,right,20.0,0,0,1.0706258999998681,026472,001,2024-09-06_12h44.31.751,adaptive_staircasepsy,2024.1.5,None,2024-09-06 12h44.36.123286 +0530,
97,1,20.0,97.61139789997833,,97.5945359999896,97.61139789997833,98.09541680000257,98.09541680000257,98.11009169998579,98.41017769998871,98.61177509999834,left,-20.0,0,0,0.507521599996835,026472,001,2024-09-06_12h44.31.751,adaptive_staircasepsy,2024.1.5,None,2024-09-06 12h44.36.123286 +0530,
98,1,20.0,98.6266128999996,,98.61183439998422,98.6266128999996,99.11325350002153,99.11325350002153,99.12933879997581,99.42590139998356,99.76435100001981,left,-20.0,0,0,0.6490170000470243,026472,001,2024-09-06_12h44.31.751,adaptive_staircasepsy,2024.1.5,None,2024-09-06 12h44.36.123286 +0530,
99,1,20.0,99.77690880000591,,99.76451190002263,99.77690880000591,100.27594000002136,100.27594000002136,100.29235309996875,100.5764090999728,100.89350920001743,left,-20.0,0,0,0.6034161999705248,026472,001,2024-09-06_12h44.31.751,adaptive_staircasepsy,2024.1.5,None,2024-09-06 12h44.36.123286 +0530,
100,1,20.0,100.90956310002366,,100.89359539997531,100.90956310002366,101.40829930000473,101.40829930000473,101.42505030002212,101.70761540002422,101.84271870000521,right,20.0,0,0,0.41977149999001995,026472,001,2024-09-06_12h44.31.751,adaptive_staircasepsy,2024.1.5,None,2024-09-06 12h44.36.123286 +0530,
101,1,20.0,101.85843730001943,,101.84278369997628,101.85843730001943,102.35807149996981,102.35807149996981,102.37418220000109,102.65707660000771,102.84176250000019,right,20.0,0,0,0.47722900001099333,026472,001,2024-09-06_12h44.31.751,adaptive_staircasepsy,2024.1.5,None,2024-09-06 12h44.36.123286 +0530,
102,1,20.0,102.856987999985,,102.84182209998835,102.856987999985,103.3576611999888,103.3576611999888,103.3576611999888,103.6580875000218,103.80756510002539,right,20.0,0,0,0.4484186999616213,026472,001,2024-09-06_12h44.31.751,adaptive_staircasepsy,2024.1.5,None,2024-09-06 12h44.36.123286 +0530,
103,1,20.0,103.82342490000883,,103.80763940000907,103.82342490000883,104.32271939999191,104.32271939999191,104.32271939999191,104.62356959999306,104.75915439997334,left,-20.0,0,0,0.4233909999602474,026472,001,2024-09-06_12h44.31.751,adaptive_staircasepsy,2024.1.5,None,2024-09-06 12h44.36.123286 +0530,
104,1,20.0,104.77288309996948,,104.75923450000118,104.77288309996948,105.27199540002039,105.27199540002039,105.27199540002039,105.57292619999498,105.75738199998159,left,-20.0,0,0,0.48099509999156,026472,001,2024-09-06_12h44.31.751,adaptive_staircasepsy,2024.1.5,None,2024-09-06 12h44.36.123286 +0530,
105,1,20.0,105.7725937999785,,105.75745009997627,105.7725937999785,106.27171739999903,106.27171739999903,106.28854520001914,106.57136459997855,106.70639080001274,right,20.0,0,0,0.4247208000160754,026472,001,2024-09-06_12h44.31.751,adaptive_staircasepsy,2024.1.5,None,2024-09-06 12h44.36.123286 +0530,
106,1,20.0,106.72203649999574,,106.70646600000327,106.72203649999574,107.22144150000531,107.22144150000531,107.23819940001704,107.52135689998977,107.65598250000039,right,20.0,0,0,0.42324859998188913,026472,001,2024-09-06_12h44.31.751,adaptive_staircasepsy,2024.1.5,None,2024-09-06 12h44.36.123286 +0530,
107,1,20.0,107.67149109998718,,107.65605230000801,107.67149109998718,108.1709414999932,108.1709414999932,108.18777909997152,108.47033979999833,108.92124270001659,right,20.0,0,0,0.7382909000152722,026472,001,2024-09-06_12h44.31.751,adaptive_staircasepsy,2024.1.5,None,2024-09-06 12h44.36.123286 +0530,
108,1,20.0,108.93702910002321,,108.92131040000822,108.93702910002321,109.41958300000988,109.41958300000988,109.43601730000228,109.72133630001917,109.9036321999738,left,-20.0,0,0,0.475864999985788,026472,001,2024-09-06_12h44.31.751,adaptive_staircasepsy,2024.1.5,None,2024-09-06 12h44.36.123286 +0530,
109,1,20.0,109.9194514999981,,109.90369649999775,109.9194514999981,110.41864719998557,110.41864719998557,110.41864719998557,110.71971059998032,110.87030289997347,right,20.0,0,0,0.4373183000134304,026472,001,2024-09-06_12h44.31.751,adaptive_staircasepsy,2024.1.5,None,2024-09-06 12h44.36.123286 +0530,
110,1,20.0,110.88556319999043,,110.87038859998574,110.88556319999043,111.37167269998463,111.37167269998463,111.38553079997655,111.68477110000094,112.06959769997047,left,-20.0,0,0,0.691405699995812,026472,001,2024-09-06_12h44.31.751,adaptive_staircasepsy,2024.1.5,None,2024-09-06 12h44.36.123286 +0530,
111,1,20.0,112.08452809997834,,112.06966550002107,112.08452809997834,112.58536189998267,112.58536189998267,112.58536189998267,112.90188740001759,113.03441969997948,right,20.0,0,0,0.43498790002195165,026472,001,2024-09-06_12h44.31.751,adaptive_staircasepsy,2024.1.5,None,2024-09-06 12h44.36.123286 +0530,
112,1,20.0,113.05306439998094,,113.03448139998363,113.05306439998094,113.55028660001699,113.55028660001699,113.56781410000985,113.85100119997514,114.08520650002174,right,20.0,0,0,0.526123900024686,026472,001,2024-09-06_12h44.31.751,adaptive_staircasepsy,2024.1.5,None,2024-09-06 12h44.36.123286 +0530,
113,1,20.0,114.09979599999497,,114.08528040000238,114.09979599999497,114.60087650001515,114.60087650001515,114.60087650001515,114.8998931000242,115.10067680000793,left,-20.0,0,0,0.48725990002276376,026472,001,2024-09-06_12h44.31.751,adaptive_staircasepsy,2024.1.5,None,2024-09-06 12h44.36.123286 +0530,
114,1,20.0,115.11695910000708,,115.10098779998953,115.11695910000708,115.61551109998254,115.61551109998254,115.63334150001174,115.9154322000104,116.16633390000788,right,20.0,0,0,0.5388152999803424,026472,001,2024-09-06_12h44.31.751,adaptive_staircasepsy,2024.1.5,None,2024-09-06 12h44.36.123286 +0530,
115,1,20.0,116.18250210001133,,116.16652079997584,116.18250210001133,116.66585330001544,116.66585330001544,116.68189170002006,116.96523410000373,117.23173130000941,right,20.0,0,0,0.5548526999773458,026472,001,2024-09-06_12h44.31.751,adaptive_staircasepsy,2024.1.5,None,2024-09-06 12h44.36.123286 +0530,
116,1,20.0,117.2485563000082,,117.23180980002508,117.2485563000082,117.74744760000613,117.74744760000613,117.74744760000613,118.04811799997697,118.4823074999731,left,-20.0,0,0,0.7299483999959193,026472,001,2024-09-06_12h44.31.751,adaptive_staircasepsy,2024.1.5,None,2024-09-06 12h44.36.123286 +0530,
117,1,20.0,118.49757790000876,,118.48241910000797,118.49757790000876,118.99785009998595,118.99785009998595,118.99785009998595,119.29700889997184,119.63173939997796,right,20.0,0,0,0.6178638000274077,026472,001,2024-09-06_12h44.31.751,adaptive_staircasepsy,2024.1.5,None,2024-09-06 12h44.36.123286 +0530,
118,1,20.0,119.64669530000538,,119.63183279999066,119.64669530000538,120.14655599999242,120.14655599999242,120.14655599999242,120.44598449999467,120.63044199999422,right,20.0,0,0,0.4704578999662772,026472,001,2024-09-06_12h44.31.751,adaptive_staircasepsy,2024.1.5,None,2024-09-06 12h44.36.123286 +0530,
119,1,20.0,120.64607750001596,,120.63050730002578,120.64607750001596,121.12950009998167,121.12950009998167,121.14598959998693,121.42847659997642,121.71224740002071,right,20.0,0,0,0.5788920000195503,026472,001,2024-09-06_12h44.31.751,adaptive_staircasepsy,2024.1.5,None,2024-09-06 12h44.36.123286 +0530,
120,1,20.0,121.72890849999385,,121.71232519997284,121.72890849999385,122.2122825999977,122.2122825999977,122.22801070002606,122.51237439998658,122.76314489997458,right,20.0,1,1,0.5473733000108041,026472,001,2024-09-06_12h44.31.751,adaptive_staircasepsy,2024.1.5,None,2024-09-06 12h44.36.123286 +0530,
121,1,20.0,122.77769810002064,,122.76321970002027,122.77769810002064,123.27820230001817,123.27820230001817,123.27820230001817,123.57735239999602,123.81139970000368,left,-20.0,0,0,0.5177333999890834,026472,001,2024-09-06_12h44.31.751,adaptive_staircasepsy,2024.1.5,None,2024-09-06 12h44.36.123286 +0530,
122,1,20.0,123.82751560001634,,123.81146990001434,123.82751560001634,124.32709400000749,124.32709400000749,124.32709400000749,124.62709010002436,125.07712859997991,right,20.0,0,0,0.7421133000170812,026472,001,2024-09-06_12h44.31.751,adaptive_staircasepsy,2024.1.5,None,2024-09-06 12h44.36.123286 +0530,
123,1,20.0,125.09352230001241,,125.07721710001351,125.09352230001241,125.5926397999865,125.5926397999865,125.5926397999865,125.89346120000118,126.8593048999901,left,-20.0,0,0,1.2533180000027642,026472,001,2024-09-06_12h44.31.751,adaptive_staircasepsy,2024.1.5,None,2024-09-06 12h44.36.123286 +0530,
124,1,20.0,126.87583209999138,,126.85937399999239,126.87583209999138,127.3592997000087,127.3592997000087,127.37488010001834,127.65818299999228,127.70978370000375,right,20.0,0,0,0.3413580000051297,026472,001,2024-09-06_12h44.31.751,adaptive_staircasepsy,2024.1.5,None,2024-09-06 12h44.36.123286 +0530,
125,1,20.0,127.72477530001197,,127.70985129999463,127.72477530001197,128.22487969999202,128.22487969999202,128.22487969999202,128.5242669999716,129.07552949996898,left,-20.0,0,0,0.8482045999844559,026472,001,2024-09-06_12h44.31.751,adaptive_staircasepsy,2024.1.5,None,2024-09-06 12h44.36.123286 +0530,
126,1,20.0,129.09119439998176,,129.07560330000706,129.09119439998176,129.5905793000129,129.5905793000129,129.5905793000129,129.89092779997736,130.3745827000239,left,-20.0,1,1,0.7755869000102393,026472,001,2024-09-06_12h44.31.751,adaptive_staircasepsy,2024.1.5,None,2024-09-06 12h44.36.123286 +0530,
127,1,20.0,130.38999960001092,,130.37465680000605,130.38999960001092,130.8903443000163,130.8903443000163,130.8903443000163,131.19028530002106,131.5399172999896,left,-20.0,0,0,0.6448813000461087,026472,001,2024-09-06_12h44.31.751,adaptive_staircasepsy,2024.1.5,None,2024-09-06 12h44.36.123286 +0530,
128,1,20.0,131.55613029998494,,131.53997769998387,131.55613029998494,132.03911419998622,132.03911419998622,132.05545859999256,132.34004239999922,132.57332480000332,right,20.0,0,0,0.5174409999744967,026472,001,2024-09-06_12h44.31.751,adaptive_staircasepsy,2024.1.5,None,2024-09-06 12h44.36.123286 +0530,
129,1,20.0,132.5891539999866,,132.57339689997025,132.5891539999866,133.08781449997332,133.08781449997332,133.1054253000184,133.38839630002622,134.68843129999004,left,-20.0,0,0,1.5852230999735184,026472,001,2024-09-06_12h44.31.751,adaptive_staircasepsy,2024.1.5,None,2024-09-06 12h44.36.123286 +0530,
130,1,20.0,134.70344289997593,,134.68849390000105,134.70344289997593,135.2039264999912,135.2039264999912,135.2039264999912,135.5030487999902,135.8716331999749,right,20.0,0,0,0.6519030000199564,026472,001,2024-09-06_12h44.31.751,adaptive_staircasepsy,2024.1.5,None,2024-09-06 12h44.36.123286 +0530,
131,1,20.0,135.88689949997934,,135.87170369998785,135.88689949997934,136.38684280001326,136.38684280001326,136.38684280001326,136.68596739997156,136.87074149999535,right,20.0,0,0,0.47202490002382547,026472,001,2024-09-06_12h44.31.751,adaptive_staircasepsy,2024.1.5,None,2024-09-06 12h44.36.123286 +0530,
132,1,20.0,136.8853642999893,,136.8708181999973,136.8853642999893,137.38501259998884,137.38501259998884,137.38501259998884,137.68569910002407,137.80290880001849,right,20.0,0,0,0.41002800001297146,026472,001,2024-09-06_12h44.31.751,adaptive_staircasepsy,2024.1.5,None,2024-09-06 12h44.36.123286 +0530,
133,1,20.0,137.82113260001643,,137.80298340000445,137.82113260001643,138.30201480002142,138.30201480002142,138.33562670001993,138.6024890000117,138.75458519998938,right,20.0,0,0,0.4384431999642402,026472,001,2024-09-06_12h44.31.751,adaptive_staircasepsy,2024.1.5,None,2024-09-06 12h44.36.123286 +0530,
134,1,20.0,138.76872699998785,,138.75469580001663,138.76872699998785,139.267457799986,139.267457799986,139.28421850001905,139.56727489997866,139.66843869996956,right,20.0,0,0,0.38897470000665635,026472,001,2024-09-06_12h44.31.751,adaptive_staircasepsy,2024.1.5,None,2024-09-06 12h44.36.123286 +0530,
135,1,20.0,139.6839499999769,,139.6685182999936,139.6839499999769,140.16782109998167,140.16782109998167,140.184427900007,140.466511000006,140.6848073999863,right,20.0,0,0,0.5033613999839872,026472,001,2024-09-06_12h44.31.751,adaptive_staircasepsy,2024.1.5,None,2024-09-06 12h44.36.123286 +0530,
136,1,20.0,140.69965480000246,,140.68488539999817,140.69965480000246,141.18275530001847,141.18275530001847,141.20005739998305,141.48323289997643,141.5842223999789,left,-20.0,0,0,0.3931860999437049,026472,001,2024-09-06_12h44.31.751,adaptive_staircasepsy,2024.1.5,None,2024-09-06 12h44.36.123286 +0530,
137,1,20.0,141.59907110000495,,141.584289899969,141.59907110000495,142.09936220000964,142.09936220000964,142.09936220000964,142.39864590001525,142.55012799997348,left,-20.0,0,0,0.44978419999824837,026472,001,2024-09-06_12h44.31.751,adaptive_staircasepsy,2024.1.5,None,2024-09-06 12h44.36.123286 +0530,
138,1,20.0,142.56504060002044,,142.55020140000852,142.56504060002044,143.06533160002436,143.06533160002436,143.06533160002436,143.36723799997708,143.76545130001614,right,20.0,0,0,0.6878028999781236,026472,001,2024-09-06_12h44.31.751,adaptive_staircasepsy,2024.1.5,None,2024-09-06 12h44.36.123286 +0530,
139,1,20.0,143.78194549999898,,143.76552070002072,143.78194549999898,144.26495250000153,144.26495250000153,144.28195069998037,144.565230600012,144.73459379997803,left,-20.0,0,0,0.458611199981533,026472,001,2024-09-06_12h44.31.751,adaptive_staircasepsy,2024.1.5,None,2024-09-06 12h44.36.123286 +0530,
140,1,20.0,144.7481554999831,,144.73470319999615,144.7481554999831,145.24764229997527,145.24764229997527,145.26340400002664,145.54661099996883,145.664635299996,right,20.0,0,0,0.40412859997013584,026472,001,2024-09-06_12h44.31.751,adaptive_staircasepsy,2024.1.5,None,2024-09-06 12h44.36.123286 +0530,
141,1,20.0,145.6800634000101,,145.66470760002267,145.6800634000101,146.1801925000036,146.1801925000036,146.1801925000036,146.4798531999695,146.63023880001856,left,-20.0,0,0,0.4433378999819979,026472,001,2024-09-06_12h44.31.751,adaptive_staircasepsy,2024.1.5,None,2024-09-06 12h44.36.123286 +0530,
142,1,20.0,146.64663269999437,,146.63030199997593,146.64663269999437,147.13026720000198,147.13026720000198,147.14565550000407,147.4292745999992,147.79717269999674,left,-20.0,0,0,0.6611881999997422,026472,001,2024-09-06_12h44.31.751,adaptive_staircasepsy,2024.1.5,None,2024-09-06 12h44.36.123286 +0530,
143,1,20.0,147.81270629999926,,147.7972445000196,147.81270629999926,148.31156980001833,148.31156980001833,148.31156980001833,148.61164630000712,148.81466979999095,left,-20.0,0,0,0.49087099998723716,026472,001,2024-09-06_12h44.31.751,adaptive_staircasepsy,2024.1.5,None,2024-09-06 12h44.36.123286 +0530,
144,1,20.0,148.8290866999887,,148.81487130001187,148.8290866999887,149.32828939997125,149.32828939997125,149.3455163000035,149.6286500999704,149.84579669998493,left,-20.0,0,0,0.5154597000218928,026472,001,2024-09-06_12h44.31.751,adaptive_staircasepsy,2024.1.5,None,2024-09-06 12h44.36.123286 +0530,
145,1,20.0,149.8615478000138,,149.84586830000626,149.8615478000138,150.36063200002536,150.36063200002536,150.36063200002536,150.66157399996882,150.94507700001122,right,20.0,0,0,0.5746937000076286,026472,001,2024-09-06_12h44.31.751,adaptive_staircasepsy,2024.1.5,None,2024-09-06 12h44.36.123286 +0530,
146,1,20.0,150.9597999000107,,150.94515659997705,150.9597999000107,151.459998300008,151.459998300008,151.459998300008,151.76056139997672,152.09483389998786,right,20.0,0,0,0.6217383000184782,026472,001,2024-09-06_12h44.31.751,adaptive_staircasepsy,2024.1.5,None,2024-09-06 12h44.36.123286 +0530,
147,1,20.0,152.1116456000018,,152.0949095999822,152.1116456000018,152.6091736999806,152.6091736999806,152.62577789998613,152.90949539997382,153.22713329998078,left,-20.0,0,0,0.6163537999964319,026472,001,2024-09-06_12h44.31.751,adaptive_staircasepsy,2024.1.5,None,2024-09-06 12h44.36.123286 +0530,
148,1,20.0,153.24201320001157,,153.22720279998612,153.24201320001157,153.74244669999462,153.74244669999462,153.74244669999462,154.04116459999932,154.86049539997475,left,-20.0,0,0,1.1070887999958359,026472,001,2024-09-06_12h44.31.751,adaptive_staircasepsy,2024.1.5,None,2024-09-06 12h44.36.123286 +0530,
149,1,20.0,154.87421749997884,,154.86056970001664,154.87421749997884,155.3748792000115,155.3748792000115,155.3748792000115,155.6740981999901,155.87509220000356,right,20.0,0,0,0.4946908999700099,026472,001,2024-09-06_12h44.31.751,adaptive_staircasepsy,2024.1.5,None,2024-09-06 12h44.36.123286 +0530,
150,1,20.0,155.8907629000023,,155.87518709996948,155.8907629000023,156.3897769000032,156.3897769000032,156.3897769000032,156.6899693000014,157.14118530001724,left,-20.0,0,0,0.7446981000248343,026472,001,2024-09-06_12h44.31.751,adaptive_staircasepsy,2024.1.5,None,2024-09-06 12h44.36.123286 +0530,
151,1,20.0,157.1563544999808,,157.14127710001776,157.1563544999808,157.6575594000169,157.6575594000169,157.6575594000169,157.97193950001383,158.19094190001488,left,-20.0,0,0,0.5290183000033721,026472,001,2024-09-06_12h44.31.751,adaptive_staircasepsy,2024.1.5,None,2024-09-06 12h44.36.123286 +0530,
152,1,20.0,158.20724999997765,,158.19101599999703,158.20724999997765,158.70631719997618,158.70631719997618,158.7222596000065,159.02217090001795,159.18918240000494,right,20.0,0,0,0.47025890002259985,026472,001,2024-09-06_12h44.31.751,adaptive_staircasepsy,2024.1.5,None,2024-09-06 12h44.36.123286 +0530,
153,1,20.0,159.20508420001715,,159.18925039999885,159.20508420001715,159.70515130000422,159.70515130000422,159.70515130000422,160.00638470001286,160.07259609998437,left,-20.0,0,0,0.3571509000030346,026472,001,2024-09-06_12h44.31.751,adaptive_staircasepsy,2024.1.5,None,2024-09-06 12h44.36.123286 +0530,
154,1,20.0,160.08829460002016,,160.07265960000223,160.08829460002016,160.58744400000433,160.58744400000433,160.58744400000433,160.88758659997256,160.95734339999035,right,20.0,0,0,0.36583909997716546,026472,001,2024-09-06_12h44.31.751,adaptive_staircasepsy,2024.1.5,None,2024-09-06 12h44.36.123286 +0530,
155,1,20.0,160.97087070002453,,160.95741360000102,160.97087070002453,161.47042660001898,161.47042660001898,161.47042660001898,161.77046269999119,161.8210010000039,left,-20.0,0,0,0.34617599996272475,026472,001,2024-09-06_12h44.31.751,adaptive_staircasepsy,2024.1.5,None,2024-09-06 12h44.36.123286 +0530,
156,1,20.0,161.83718779997434,,161.82107880001422,161.83718779997434,162.33674210001482,162.33674210001482,162.33674210001482,162.6370620999951,162.75417829997605,left,-20.0,0,0,0.4061441000085324,026472,001,2024-09-06_12h44.31.751,adaptive_staircasepsy,2024.1.5,None,2024-09-06 12h44.36.123286 +0530,
157,1,20.0,162.76936739997473,,162.75424859998748,162.76936739997473,163.26962460001232,163.26962460001232,163.26962460001232,163.5691186999902,164.03679260000354,left,-20.0,0,0,0.7516305999597535,026472,001,2024-09-06_12h44.31.751,adaptive_staircasepsy,2024.1.5,None,2024-09-06 12h44.36.123286 +0530,
158,1,20.0,164.0522789999959,,164.03685879998375,164.0522789999959,164.55243739997968,164.55243739997968,164.55243739997968,164.85298249998596,165.15204600000288,right,20.0,0,0,0.595138999982737,026472,001,2024-09-06_12h44.31.751,adaptive_staircasepsy,2024.1.5,None,2024-09-06 12h44.36.123286 +0530,
159,1,20.0,165.16784339997685,,165.1521179000265,165.16784339997685,165.6508262999705,165.6508262999705,165.6680616000085,165.95302399998764,166.00181089999387,left,-20.0,0,0,0.3464685000362806,026472,001,2024-09-06_12h44.31.751,adaptive_staircasepsy,2024.1.5,None,2024-09-06 12h44.36.123286 +0530,
160,1,20.0,166.01695010002004,,166.00188910000725,166.01695010002004,166.51709669997217,166.51709669997217,166.51709669997217,166.81705650000367,167.03399059997173,left,-20.0,0,0,0.512341900030151,026472,001,2024-09-06_12h44.31.751,adaptive_staircasepsy,2024.1.5,None,2024-09-06 12h44.36.123286 +0530,
161,1,20.0,167.0523317999905,,167.03406149998773,167.0523317999905,167.5499768999871,167.5499768999871,167.56778250000207,167.85023949999595,168.001678599976,right,20.0,0,0,0.4475056000519544,026472,001,2024-09-06_12h44.31.751,adaptive_staircasepsy,2024.1.5,None,2024-09-06 12h44.36.123286 +0530,
162,1,20.0,168.01662740000756,,168.00175330002094,168.01662740000756,168.51618420000887,168.51618420000887,168.53270939999493,168.81776840001112,168.87042250001105,left,-20.0,0,0,0.3517312000039965,026472,001,2024-09-06_12h44.31.751,adaptive_staircasepsy,2024.1.5,None,2024-09-06 12h44.36.123286 +0530,
163,1,20.0,168.88305190001847,,168.87052280001808,168.88305190001847,169.38183159998152,169.38183159998152,169.38183159998152,169.68242849997478,169.9319642999908,left,-20.0,0,0,0.5401508999639191,026472,001,2024-09-06_12h44.31.751,adaptive_staircasepsy,2024.1.5,None,2024-09-06 12h44.36.123286 +0530,
164,1,20.0,169.94868179998593,,169.93203289998928,169.94868179998593,170.44784530001925,170.44784530001925,170.44784530001925,170.7476300999988,171.098305099993,right,20.0,0,0,0.6474264000426047,026472,001,2024-09-06_12h44.31.751,adaptive_staircasepsy,2024.1.5,None,2024-09-06 12h44.36.123286 +0530,
165,1,20.0,171.1137017000001,,171.09837299998617,171.1137017000001,171.59801780001726,171.59801780001726,171.6141079000081,171.89731909998227,172.08118769997964,right,20.0,0,0,0.47431919997325167,026472,001,2024-09-06_12h44.31.751,adaptive_staircasepsy,2024.1.5,None,2024-09-06 12h44.36.123286 +0530,
166,1,20.0,172.09712109999964,,172.08125519996975,172.09712109999964,172.59846030001063,172.59846030001063,172.59846030001063,172.9131536000059,173.2477353999857,right,20.0,0,0,0.6414975999505259,026472,001,2024-09-06_12h44.31.751,adaptive_staircasepsy,2024.1.5,None,2024-09-06 12h44.36.123286 +0530,
167,1,20.0,173.26249689998804,,173.24781259999145,173.26249689998804,173.76386080001248,173.76386080001248,173.76386080001248,174.06335269997362,174.2131539999973,left,-20.0,0,0,0.44093049998627976,026472,001,2024-09-06_12h44.31.751,adaptive_staircasepsy,2024.1.5,None,2024-09-06 12h44.36.123286 +0530,
168,1,20.0,174.22994629997993,,174.2132302999962,174.22994629997993,174.7284312999691,174.7284312999691,174.7284312999691,175.02924369997345,175.19555689999834,right,20.0,0,0,0.4512296000029892,026472,001,2024-09-06_12h44.31.751,adaptive_staircasepsy,2024.1.5,None,2024-09-06 12h44.36.123286 +0530,
169,1,20.0,175.21193250000942,,175.19563660002314,175.21193250000942,175.71114359999774,175.71114359999774,175.71114359999774,176.01130979997106,176.112707399996,left,-20.0,0,0,0.39941920002456754,026472,001,2024-09-06_12h44.31.751,adaptive_staircasepsy,2024.1.5,None,2024-09-06 12h44.36.123286 +0530,
170,1,20.0,176.12713390000863,,176.11277250002604,176.12713390000863,176.6277517999988,176.6277517999988,176.6277517999988,176.92760930000804,177.0461523999693,right,20.0,0,0,0.41354010003851727,026472,001,2024-09-06_12h44.31.751,adaptive_staircasepsy,2024.1.5,None,2024-09-06 12h44.36.123286 +0530,
171,1,20.0,177.0605007999693,,177.0462357000215,177.0605007999693,177.55999079998583,177.55999079998583,177.55999079998583,177.85995100002037,178.02762210002402,left,-20.0,0,0,0.4647226000088267,026472,001,2024-09-06_12h44.31.751,adaptive_staircasepsy,2024.1.5,None,2024-09-06 12h44.36.123286 +0530,
172,1,20.0,178.04321189998882,,178.02771130000474,178.04321189998882,178.54254539997783,178.54254539997783,178.54254539997783,178.84319829999004,178.99441139999544,right,20.0,0,0,0.4484495000215247,026472,001,2024-09-06_12h44.31.751,adaptive_staircasepsy,2024.1.5,None,2024-09-06 12h44.36.123286 +0530,
173,1,20.0,179.009086999984,,178.99447759997565,179.009086999984,179.50934589997632,179.50934589997632,179.50934589997632,179.80848569999216,180.1253982000053,right,20.0,1,1,0.6060332999913953,026472,001,2024-09-06_12h44.31.751,adaptive_staircasepsy,2024.1.5,None,2024-09-06 12h44.36.123286 +0530,
174,1,20.0,180.1417572000064,,180.12547869997798,180.1417572000064,180.6256102999905,180.6256102999905,180.6414236999699,180.92440010001883,181.30872739996994,right,20.0,0,0,0.6724319999921136,026472,001,2024-09-06_12h44.31.751,adaptive_staircasepsy,2024.1.5,None,2024-09-06 12h44.36.123286 +0530,
175,1,20.0,181.32408170000417,,181.30880609998712,181.32408170000417,181.8239638999803,181.8239638999803,181.8239638999803,182.12464719999116,182.34113159996923,right,20.0,0,0,0.5027705999673344,026472,001,2024-09-06_12h44.31.751,adaptive_staircasepsy,2024.1.5,None,2024-09-06 12h44.36.123286 +0530,
176,1,20.0,182.35786470002495,,182.34119730000384,182.35786470002495,182.84065500000725,182.84065500000725,182.85739199997624,183.1407417000155,183.29200269997818,left,-20.0,0,0,0.4426445999997668,026472,001,2024-09-06_12h44.31.751,adaptive_staircasepsy,2024.1.5,None,2024-09-06 12h44.36.123286 +0530,
177,1,20.0,183.30647259997204,,183.29210570000578,183.30647259997204,183.80678579997038,183.80678579997038,183.80678579997038,184.1066488000215,184.2582150999806,left,-20.0,0,0,0.4408227999811061,026472,001,2024-09-06_12h44.31.751,adaptive_staircasepsy,2024.1.5,None,2024-09-06 12h44.36.123286 +0530,
178,1,20.0,184.27233329997398,,184.25831659999676,184.27233329997398,184.77310749999015,184.77310749999015,184.77310749999015,185.07165439997334,185.17386869998882,right,20.0,0,0,0.3904585000127554,026472,001,2024-09-06_12h44.31.751,adaptive_staircasepsy,2024.1.5,None,2024-09-06 12h44.36.123286 +0530,
179,1,20.0,185.188597499975,,185.17398610000964,185.188597499975,185.68881469999906,185.68881469999906,185.68881469999906,185.98933429998579,186.17345389997354,right,20.0,0,0,0.4744257000274956,026472,001,2024-09-06_12h44.31.751,adaptive_staircasepsy,2024.1.5,None,2024-09-06 12h44.36.123286 +0530,
180,1,20.0,186.188662200002,,186.17355150001822,186.188662200002,186.68886930000735,186.68886930000735,186.68886930000735,186.98855459998595,187.088788699999,right,20.0,0,0,0.3924274999881163,026472,001,2024-09-06_12h44.31.751,adaptive_staircasepsy,2024.1.5,None,2024-09-06 12h44.36.123286 +0530,
181,1,20.0,187.10429220000515,,187.08891900000162,187.10429220000515,187.60328219999792,187.60328219999792,187.60328219999792,187.90307709999615,188.17096730001504,left,-20.0,0,0,0.5549100999487564,026472,001,2024-09-06_12h44.31.751,adaptive_staircasepsy,2024.1.5,None,2024-09-06 12h44.36.123286 +0530,
182,1,20.0,188.1863311000052,,188.17102810001234,188.1863311000052,188.6709992000251,188.6709992000251,188.6871722000069,188.97071379999397,189.1242748000077,right,20.0,0,0,0.4482659000204876,026472,001,2024-09-06_12h44.31.751,adaptive_staircasepsy,2024.1.5,None,2024-09-06 12h44.36.123286 +0530,
183,1,20.0,189.1375510999933,,189.12442659999942,189.1375510999933,189.63691890001064,189.63691890001064,189.65321219997713,189.93666700000176,190.05571250000503,left,-20.0,0,0,0.4164578999625519,026472,001,2024-09-06_12h44.31.751,adaptive_staircasepsy,2024.1.5,None,2024-09-06 12h44.36.123286 +0530,
184,1,20.0,190.0692635999876,,190.0558307999745,190.0692635999876,190.569702400011,190.569702400011,190.569702400011,190.8691361999954,190.98788319999585,right,20.0,0,0,0.41497689997777343,026472,001,2024-09-06_12h44.31.751,adaptive_staircasepsy,2024.1.5,None,2024-09-06 12h44.36.123286 +0530,
185,1,20.0,191.0019321999862,,190.9879888999858,191.0019321999862,191.50237050000578,191.50237050000578,191.50237050000578,191.80178209999576,192.35249279998243,right,20.0,0,0,0.836129900009837,026472,001,2024-09-06_12h44.31.751,adaptive_staircasepsy,2024.1.5,None,2024-09-06 12h44.36.123286 +0530,
186,1,20.0,192.3670902000158,,192.3525878000073,192.3670902000158,192.86761820001993,192.86761820001993,192.86761820001993,193.1678582999739,193.33643389999634,right,20.0,1,1,0.46724129997892305,026472,001,2024-09-06_12h44.31.751,adaptive_staircasepsy,2024.1.5,None,2024-09-06 12h44.36.123286 +0530,
187,1,20.0,193.3502280000248,,193.33653269999195,193.3502280000248,193.85110720002558,193.85110720002558,193.85110720002558,194.15065899997717,194.58585540001513,right,20.0,0,0,0.7262785999919288,026472,001,2024-09-06_12h44.31.751,adaptive_staircasepsy,2024.1.5,None,2024-09-06 12h44.36.123286 +0530,
188,1,20.0,194.59921090002172,,194.5859393000137,194.59921090002172,195.10014370002318,195.10014370002318,195.10014370002318,195.3991629999946,195.50058689998696,right,20.0,0,0,0.3864270999911241,026472,001,2024-09-06_12h44.31.751,adaptive_staircasepsy,2024.1.5,None,2024-09-06 12h44.36.123286 +0530,
189,1,20.0,195.51567990001058,,195.5006885000039,195.51567990001058,196.01619569998002,196.01619569998002,196.01619569998002,196.31569919997128,196.48317510000197,right,20.0,0,0,0.4561183999758214,026472,001,2024-09-06_12h44.31.751,adaptive_staircasepsy,2024.1.5,None,2024-09-06 12h44.36.123286 +0530,
190,1,20.0,196.49881869996898,,196.4832947999821,196.49881869996898,196.999131700024,196.999131700024,196.999131700024,197.29869139997754,197.49954779999098,left,-20.0,0,0,0.4871186999953352,026472,001,2024-09-06_12h44.31.751,adaptive_staircasepsy,2024.1.5,None,2024-09-06 12h44.36.123286 +0530,
191,1,20.0,197.5144737000228,,197.49967130000005,197.5144737000228,198.01451180002186,198.01451180002186,198.01451180002186,198.31462269998156,198.4992453000159,right,20.0,0,0,0.47769170004175976,026472,001,2024-09-06_12h44.31.751,adaptive_staircasepsy,2024.1.5,None,2024-09-06 12h44.36.123286 +0530,
192,1,20.0,198.51324040000327,,198.49934400001075,198.51324040000327,199.0140274000005,199.0140274000005,199.0140274000005,199.31393740000203,199.42984170001,left,-20.0,1,1,0.4118851000093855,026472,001,2024-09-06_12h44.31.751,adaptive_staircasepsy,2024.1.5,None,2024-09-06 12h44.36.123286 +0530,
193,1,20.0,199.44614890002413,,199.42990109999664,199.44614890002413,199.92944500001613,199.92944500001613,199.94711519998964,200.23039560002508,200.44822770002065,right,20.0,0,0,0.5131731000146829,026472,001,2024-09-06_12h44.31.751,adaptive_staircasepsy,2024.1.5,None,2024-09-06 12h44.36.123286 +0530,
194,1,20.0,200.46292469999753,,200.44833639997523,200.46292469999753,200.96277530002408,200.96277530002408,200.96277530002408,201.26183019997552,201.36369720002403,right,20.0,0,0,0.39537009998457506,026472,001,2024-09-06_12h44.31.751,adaptive_staircasepsy,2024.1.5,None,2024-09-06 12h44.36.123286 +0530,
195,1,20.0,201.3791815000004,,201.36379879998276,201.3791815000004,201.86203870002646,201.86203870002646,201.87853799998993,202.1627222999814,202.4132717999746,left,-20.0,1,1,0.5433320000302047,026472,001,2024-09-06_12h44.31.751,adaptive_staircasepsy,2024.1.5,None,2024-09-06 12h44.36.123286 +0530,
196,1,20.0,202.4279286999954,,202.41337730002124,202.4279286999954,202.92866819998017,202.92866819998017,202.92866819998017,203.2437396000023,208.09173639997607,left,-20.0,0,0,5.148965100001078,026472,001,2024-09-06_12h44.31.751,adaptive_staircasepsy,2024.1.5,None,2024-09-06 12h44.36.123286 +0530,
197,1,20.0,208.1079761000001,,208.0920080000069,208.1079761000001,208.59063150000293,208.59063150000293,208.6074043000117,208.89101079996908,213.50483180000447,left,-20.0,1,1,4.905639300006442,026472,001,2024-09-06_12h44.31.751,adaptive_staircasepsy,2024.1.5,None,2024-09-06 12h44.36.123286 +0530,
198,1,20.0,213.52037689997815,,213.50489290000405,213.52037689997815,214.02042140002595,214.02042140002595,214.02042140002595,214.3207463999861,214.83791579998797,left,-20.0,0,0,0.8072117000119761,026472,001,2024-09-06_12h44.31.751,adaptive_staircasepsy,2024.1.5,None,2024-09-06 12h44.36.123286 +0530,
199,1,20.0,214.85323289997177,,214.8379826999735,214.85323289997177,215.33609060000163,215.33609060000163,215.3534728999948,215.63675459998194,215.8204340999946,left,-20.0,0,0,0.4739177000010386,026472,001,2024-09-06_12h44.31.751,adaptive_staircasepsy,2024.1.5,None,2024-09-06 12h44.36.123286 +0530,
200,1,20.0,215.83643780002603,,215.8205047000083,215.83643780002603,216.33539490000112,216.33539490000112,216.33539490000112,216.63642569998046,216.80287810001755,left,-20.0,0,0,0.45390050002606586,026472,001,2024-09-06_12h44.31.751,adaptive_staircasepsy,2024.1.5,None,2024-09-06 12h44.36.123286 +0530,
201,1,20.0,216.81951499998104,,216.80295179999666,216.81951499998104,217.31814330001362,217.31814330001362,217.31814330001362,217.6184678999707,217.78561359999003,right,20.0,0,0,0.4571906999917701,026472,001,2024-09-06_12h44.31.751,adaptive_staircasepsy,2024.1.5,None,2024-09-06 12h44.36.123286 +0530,
202,1,20.0,217.8018719999818,,217.78569240000797,217.8018719999818,218.30149230000097,218.30149230000097,218.30149230000097,218.60159129998647,219.234562299971,left,-20.0,0,0,0.9193303000065498,026472,001,2024-09-06_12h44.31.751,adaptive_staircasepsy,2024.1.5,None,2024-09-06 12h44.36.123286 +0530,
203,1,20.0,219.2502951999777,,219.2346275000018,219.2502951999777,219.73366179998266,219.73366179998266,219.75064739998197,220.0339683999773,220.46788850001758,right,20.0,0,0,0.7231721999705769,026472,001,2024-09-06_12h44.31.751,adaptive_staircasepsy,2024.1.5,None,2024-09-06 12h44.36.123286 +0530,
204,1,20.0,220.4830256999703,,220.4679565000115,220.4830256999703,220.98327919997973,220.98327919997973,220.98327919997973,221.2826698999852,221.8671530999709,left,-20.0,0,0,0.8827468999661505,026472,001,2024-09-06_12h44.31.751,adaptive_staircasepsy,2024.1.5,None,2024-09-06 12h44.36.123286 +0530,
205,1,20.0,221.88221599999815,,221.8672359000193,221.88221599999815,222.38255109998863,222.38255109998863,222.38255109998863,222.6844389999751,223.81495909998193,left,-20.0,0,0,1.4272459999774583,026472,001,2024-09-06_12h44.31.751,adaptive_staircasepsy,2024.1.5,None,2024-09-06 12h44.36.123286 +0530,
206,1,20.0,223.8311446000007,,223.81505410000682,223.8311446000007,224.3158830999746,224.3158830999746,224.33197170001222,224.63096889998997,224.7979716999689,right,20.0,0,0,0.47465180000290275,026472,001,2024-09-06_12h44.31.751,adaptive_staircasepsy,2024.1.5,None,2024-09-06 12h44.36.123286 +0530,
207,1,20.0,224.81435369997052,,224.79804139997577,224.81435369997052,225.31319499999518,225.31319499999518,225.31319499999518,225.61341160000302,225.71428630000446,right,20.0,0,0,0.3880715999985114,026472,001,2024-09-06_12h44.31.751,adaptive_staircasepsy,2024.1.5,None,2024-09-06 12h44.36.123286 +0530,
208,1,20.0,225.73037760000443,,225.71436270000413,225.73037760000443,226.22947309998563,226.22947309998563,226.22947309998563,226.52973790001124,226.78015180001967,right,20.0,0,0,0.5474499000119977,026472,001,2024-09-06_12h44.31.751,adaptive_staircasepsy,2024.1.5,None,2024-09-06 12h44.36.123286 +0530,
209,1,20.0,226.79551450000145,,226.78022640000563,226.79551450000145,227.2805446999846,227.2805446999846,227.2972922999761,227.59588739997707,228.32904769998277,left,-20.0,0,0,1.043811600015033,026472,001,2024-09-06_12h44.31.751,adaptive_staircasepsy,2024.1.5,None,2024-09-06 12h44.36.123286 +0530,
210,1,20.0,228.34484849998262,,228.32913339999504,228.34484849998262,228.84410490002483,228.84410490002483,228.84410490002483,229.14596880000317,229.56324350001523,right,20.0,0,0,0.7174859000369906,026472,001,2024-09-06_12h44.31.751,adaptive_staircasepsy,2024.1.5,None,2024-09-06 12h44.36.123286 +0530,
211,1,20.0,229.57776359998388,,229.56332000001566,229.57776359998388,230.07668990001548,230.07668990001548,230.07668990001548,230.37738070002524,232.9933743000147,right,20.0,0,0,2.9056128000374883,026472,001,2024-09-06_12h44.31.751,adaptive_staircasepsy,2024.1.5,None,2024-09-06 12h44.36.123286 +0530,
212,1,20.0,233.0081469999859,,232.9934343000059,233.0081469999859,233.50862159999087,233.50862159999087,233.50862159999087,233.80791839997983,234.02557320002234,left,-20.0,0,0,0.5053361000027508,026472,001,2024-09-06_12h44.31.751,adaptive_staircasepsy,2024.1.5,None,2024-09-06 12h44.36.123286 +0530,
213,1,20.0,234.04081430000952,,234.0256346000242,234.04081430000952,234.52461229998153,234.52461229998153,234.5417423999752,234.8278526000213,235.24106319999555,left,-20.0,0,0,0.7066246999893337,026472,001,2024-09-06_12h44.31.751,adaptive_staircasepsy,2024.1.5,None,2024-09-06 12h44.36.123286 +0530,
214,1,20.0,235.2571612999891,,235.2411645000102,235.2571612999891,235.73992119997274,235.73992119997274,235.75676600000588,236.03993740002625,236.22394300001906,left,-20.0,0,0,0.47719130001496524,026472,001,2024-09-06_12h44.31.751,adaptive_staircasepsy,2024.1.5,None,2024-09-06 12h44.36.123286 +0530,
215,1,20.0,236.23973909998313,,236.2240182000096,236.23973909998313,236.73997880000388,236.73997880000388,236.73997880000388,237.03939119999995,237.14181320002535,right,20.0,0,0,0.3913647000445053,026472,001,2024-09-06_12h44.31.751,adaptive_staircasepsy,2024.1.5,None,2024-09-06 12h44.36.123286 +0530,
216,1,20.0,237.1562711999868,,237.1419101000065,237.1562711999868,237.63866449997295,237.63866449997295,237.65622290002648,237.9391881999909,238.0060475000064,right,20.0,0,0,0.3619994000182487,026472,001,2024-09-06_12h44.31.751,adaptive_staircasepsy,2024.1.5,None,2024-09-06 12h44.36.123286 +0530,
217,1,20.0,238.02253979997477,,238.00653760001296,238.02253979997477,238.52192799997283,238.52192799997283,238.52192799997283,238.8216570999939,238.90825009997934,right,20.0,0,0,0.3839087999658659,026472,001,2024-09-06_12h44.31.751,adaptive_staircasepsy,2024.1.5,None,2024-09-06 12h44.36.123286 +0530,
218,1,20.0,238.92201590002514,,238.9083743999945,238.92201590002514,239.4211669000215,239.4211669000215,239.4211669000215,239.72166440001456,239.75553450000007,right,20.0,0,0,0.323365600022953,026472,001,2024-09-06_12h44.31.751,adaptive_staircasepsy,2024.1.5,None,2024-09-06 12h44.36.123286 +0530,
219,1,20.0,239.77108969999244,,239.75559929996962,239.77108969999244,240.27115919999778,240.27115919999778,240.28746620001039,240.57034009997733,240.63840220001293,right,20.0,0,0,0.36238850001245737,026472,001,2024-09-06_12h44.31.751,adaptive_staircasepsy,2024.1.5,None,2024-09-06 12h44.36.123286 +0530,
220,1,20.0,240.65317549998872,,240.63847479998367,240.65317549998872,241.15350690000923,241.15350690000923,241.15350690000923,241.45276989997365,241.9544602999813,right,20.0,0,0,0.787774599972181,026472,001,2024-09-06_12h44.31.751,adaptive_staircasepsy,2024.1.5,None,2024-09-06 12h44.36.123286 +0530,
221,1,20.0,241.96932550001657,,241.95454160001827,241.96932550001657,242.46967620000942,242.46967620000942,242.46967620000942,242.76876499998616,243.03737729997374,right,20.0,0,0,0.5658150999806821,026472,001,2024-09-06_12h44.31.751,adaptive_staircasepsy,2024.1.5,None,2024-09-06 12h44.36.123286 +0530,
222,1,20.0,243.05160990002332,,243.03745150001487,243.05160990002332,243.55219680001028,243.55219680001028,243.55219680001028,243.85165929998038,244.08611739997286,right,20.0,0,0,0.529680100036785,026472,001,2024-09-06_12h44.31.751,adaptive_staircasepsy,2024.1.5,None,2024-09-06 12h44.36.123286 +0530,
223,1,20.0,244.10156370000914,,244.0861948999809,244.10156370000914,244.6008823000011,244.6008823000011,244.6008823000011,244.9011526000104,245.402896900021,left,-20.0,0,0,0.7876459999824874,026472,001,2024-09-06_12h44.31.751,adaptive_staircasepsy,2024.1.5,None,2024-09-06 12h44.36.123286 +0530,
224,1,20.0,245.41808089998085,,245.40296269999817,245.41808089998085,245.9168239000137,245.9168239000137,245.9168239000137,246.21708879998187,246.28377300000284,left,-20.0,1,1,0.35734420001972467,026472,001,2024-09-06_12h44.31.751,adaptive_staircasepsy,2024.1.5,None,2024-09-06 12h44.36.123286 +0530,
225,1,20.0,246.30058380000992,,246.28383879998,246.30058380000992,246.78380739997374,246.78380739997374,246.79950510000344,247.082877799985,247.58407089998946,left,-20.0,0,0,0.7978124000364915,026472,001,2024-09-06_12h44.31.751,adaptive_staircasepsy,2024.1.5,None,2024-09-06 12h44.36.123286 +0530,
226,1,20.0,247.60124470002484,,247.5841457999777,247.60124470002484,248.09914720000234,248.09914720000234,248.1162579000229,248.39932899997802,248.499608299986,right,20.0,1,1,0.38570500002242625,026472,001,2024-09-06_12h44.31.751,adaptive_staircasepsy,2024.1.5,None,2024-09-06 12h44.36.123286 +0530,
227,1,20.0,248.51549650001107,,248.49970669997856,248.51549650001107,249.01514129998395,249.01514129998395,249.01514129998395,249.3156805000035,251.564807799994,right,20.0,1,1,2.5424708999926224,026472,001,2024-09-06_12h44.31.751,adaptive_staircasepsy,2024.1.5,None,2024-09-06 12h44.36.123286 +0530,
228,1,20.0,251.5798706000205,,251.56487780000316,251.5798706000205,252.07953930000076,252.07953930000076,252.07953930000076,252.37958629999775,253.29743380000582,left,-20.0,0,0,1.2044196000206284,026472,001,2024-09-06_12h44.31.751,adaptive_staircasepsy,2024.1.5,None,2024-09-06 12h44.36.123286 +0530,
229,1,20.0,253.31272139999783,,253.29750440001953,253.31272139999783,253.812156400003,253.812156400003,253.82915439998033,254.11242209997727,254.39681730000302,left,-20.0,0,0,0.5836378000094555,026472,001,2024-09-06_12h44.31.751,adaptive_staircasepsy,2024.1.5,None,2024-09-06 12h44.36.123286 +0530,
230,1,20.0,254.41168179997476,,254.39688630000455,254.41168179997476,254.91200790001312,254.91200790001312,254.91200790001312,255.21119429997634,255.46150039997883,left,-20.0,0,0,0.5446888000005856,026472,001,2024-09-06_12h44.31.751,adaptive_staircasepsy,2024.1.5,None,2024-09-06 12h44.36.123286 +0530,
231,1,20.0,255.4781109999749,,255.46157619997393,255.4781109999749,255.97682239999995,255.97682239999995,255.97682239999995,256.27763730002334,256.5944320000126,right,20.0,0,0,0.6119101999793202,026472,001,2024-09-06_12h44.31.751,adaptive_staircasepsy,2024.1.5,None,2024-09-06 12h44.36.123286 +0530,
232,1,20.0,256.610476700007,,256.59450820001075,256.610476700007,257.1098360000178,257.1098360000178,257.1098360000178,257.4096520000021,257.777288399986,right,20.0,0,0,0.6551575000048615,026472,001,2024-09-06_12h44.31.751,adaptive_staircasepsy,2024.1.5,None,2024-09-06 12h44.36.123286 +0530,
233,1,20.0,257.79235439997865,,257.7773528000107,257.79235439997865,258.29331629996886,258.29331629996886,258.29331629996886,258.5924104999867,259.20963880000636,right,20.0,0,0,0.9075007000355981,026472,001,2024-09-06_12h44.31.751,adaptive_staircasepsy,2024.1.5,None,2024-09-06 12h44.36.123286 +0530,
234,1,20.0,259.2268041999778,,259.2097048999858,259.2268041999778,259.7251317999908,259.7251317999908,259.74122409999836,260.0254166999948,260.1425886999932,left,-20.0,0,0,0.4075615999754518,026472,001,2024-09-06_12h44.31.751,adaptive_staircasepsy,2024.1.5,None,2024-09-06 12h44.36.123286 +0530,
235,1,20.0,260.15822649997426,,260.1426743000047,260.15822649997426,260.6588831000263,260.6588831000263,260.6588831000263,260.97506430000067,261.0923421999905,left,-20.0,0,0,0.41861880000215024,026472,001,2024-09-06_12h44.31.751,adaptive_staircasepsy,2024.1.5,None,2024-09-06 12h44.36.123286 +0530,
236,1,20.0,261.1081043999875,,261.0924285000074,261.1081043999875,261.6072857999825,261.6072857999825,261.6239928000141,261.9072151000146,262.19051380001474,left,-20.0,0,0,0.5721730000223033,026472,001,2024-09-06_12h44.31.751,adaptive_staircasepsy,2024.1.5,None,2024-09-06 12h44.36.123286 +0530,
237,1,20.0,262.2068932999973,,262.19058080000104,262.2068932999973,262.69085610000184,262.69085610000184,262.7061972999945,263.00708379998105,263.2906159000122,left,-20.0,0,0,0.5954134999774396,026472,001,2024-09-06_12h44.31.751,adaptive_staircasepsy,2024.1.5,None,2024-09-06 12h44.36.123286 +0530,
238,1,20.0,263.30563139996957,,263.29069310001796,263.30563139996957,263.80629540001974,263.80629540001974,263.80629540001974,264.10624509997433,264.25668380002026,left,-20.0,0,0,0.4414420999819413,026472,001,2024-09-06_12h44.31.751,adaptive_staircasepsy,2024.1.5,None,2024-09-06 12h44.36.123286 +0530,
239,1,20.0,264.2730514999712,,264.25675890001,264.2730514999712,264.75540700001875,264.75540700001875,264.77247490000445,265.0560299999779,265.2228875000146,left,-20.0,0,0,0.45867129997350276,026472,001,2024-09-06_12h44.31.751,adaptive_staircasepsy,2024.1.5,None,2024-09-06 12h44.36.123286 +0530,
240,1,20.0,265.23792829999,,265.2229546000017,265.23792829999,265.7387451999821,265.7387451999821,265.7387451999821,266.0373917000252,266.0892950000125,left,-20.0,0,0,0.345415799994953,026472,001,2024-09-06_12h44.31.751,adaptive_staircasepsy,2024.1.5,None,2024-09-06 12h44.36.123286 +0530,
241,1,20.0,266.10437319998164,,266.08937739999965,266.10437319998164,266.60460660001263,266.60460660001263,266.60460660001263,266.90334389999043,267.03839639999205,right,20.0,0,0,0.423042600043118,026472,001,2024-09-06_12h44.31.751,adaptive_staircasepsy,2024.1.5,None,2024-09-06 12h44.36.123286 +0530,
242,1,20.0,267.05361290002475,,267.0384655999951,267.05361290002475,267.5538127999753,267.5538127999753,267.5538127999753,267.8527571000159,268.6884493000107,left,-20.0,0,0,1.1222316999919713,026472,001,2024-09-06_12h44.31.751,adaptive_staircasepsy,2024.1.5,None,2024-09-06 12h44.36.123286 +0530,
243,1,20.0,268.70293779997155,,268.6885459999903,268.70293779997155,269.2024496999802,269.2024496999802,269.2024496999802,269.5029471999733,276.4153966999729,right,20.0,0,0,7.20727190002799,026472,001,2024-09-06_12h44.31.751,adaptive_staircasepsy,2024.1.5,None,2024-09-06 12h44.36.123286 +0530,
244,1,20.0,276.43154499999946,,276.41548199998215,276.43154499999946,276.9145783999702,276.9145783999702,276.9313927000039,277.21513229998527,277.2828468999942,right,20.0,0,0,0.3631519000045955,026472,001,2024-09-06_12h44.31.751,adaptive_staircasepsy,2024.1.5,None,2024-09-06 12h44.36.123286 +0530,
245,1,20.0,277.29727619996993,,277.2829458999913,277.29727619996993,277.7978583999793,277.7978583999793,277.7978583999793,278.0978034000145,278.13212959998054,left,-20.0,1,1,0.33081219997256994,026472,001,2024-09-06_12h44.31.751,adaptive_staircasepsy,2024.1.5,None,2024-09-06 12h44.36.123286 +0530,
246,1,20.0,278.14735929999733,,278.1322455999907,278.14735929999733,278.6465704999864,278.6465704999864,278.6465704999864,278.9502238999703,279.2664451000164,left,-20.0,0,0,0.6144079999648966,026472,001,2024-09-06_12h44.31.751,adaptive_staircasepsy,2024.1.5,None,2024-09-06 12h44.36.123286 +0530,
247,1,20.0,279.2808880999801,,279.2665288000135,279.2808880999801,279.7808528000023,279.7808528000023,279.7808528000023,280.0961923999712,280.19907690002583,right,20.0,0,0,0.41101420001359656,026472,001,2024-09-06_12h44.31.751,adaptive_staircasepsy,2024.1.5,None,2024-09-06 12h44.36.123286 +0530,
248,1,20.0,280.2125250999816,,280.19919449998997,280.2125250999816,280.7125935999793,280.7125935999793,280.7125935999793,281.01227309997194,281.1624654000043,right,20.0,0,0,0.4402346000424586,026472,001,2024-09-06_12h44.31.751,adaptive_staircasepsy,2024.1.5,None,2024-09-06 12h44.36.123286 +0530,
249,1,20.0,281.1780276999925,,281.16259620001074,281.1780276999925,281.6616607999895,281.6616607999895,281.67874399997527,281.9621867000242,281.9965715999715,left,-20.0,0,0,0.3203588000033051,026472,001,2024-09-06_12h44.31.751,adaptive_staircasepsy,2024.1.5,None,2024-09-06 12h44.36.123286 +0530,
250,1,20.0,282.0116014999803,,281.99668380001094,282.0116014999803,282.51140820002183,282.51140820002183,282.51140820002183,282.81067640002584,282.8454922999954,right,20.0,1,1,0.3207356000202708,026472,001,2024-09-06_12h44.31.751,adaptive_staircasepsy,2024.1.5,None,2024-09-06 12h44.36.123286 +0530,
251,1,20.0,282.8603219999932,,282.84559230000013,282.8603219999932,283.36048530001426,283.36048530001426,283.36048530001426,283.66128669999307,283.8463457999751,left,-20.0,0,0,0.4796319000306539,026472,001,2024-09-06_12h44.31.751,adaptive_staircasepsy,2024.1.5,None,2024-09-06 12h44.36.123286 +0530,
252,1,20.0,283.86005640000803,,283.8464761999785,283.86005640000803,284.360414099996,284.360414099996,284.360414099996,284.66044720000355,284.6946028000093,left,-20.0,1,1,0.3255825000233017,026472,001,2024-09-06_12h44.31.751,adaptive_staircasepsy,2024.1.5,None,2024-09-06 12h44.36.123286 +0530,
253,1,20.0,284.70873509999365,,284.69471229997,284.70873509999365,285.21055239997804,285.21055239997804,285.21055239997804,285.5259758000029,287.24363550002454,right,20.0,1,1,2.0287557000410743,026472,001,2024-09-06_12h44.31.751,adaptive_staircasepsy,2024.1.5,None,2024-09-06 12h44.36.123286 +0530,
254,0.5,20.0,287.25822169997264,,287.24372959998436,287.25822169997264,287.75768089998746,287.75768089998746,287.75768089998746,288.0580568999867,288.1260494000162,right,20.0,1,1,0.3572293999604881,026472,001,2024-09-06_12h44.31.751,adaptive_staircasepsy,2024.1.5,None,2024-09-06 12h44.36.123286 +0530,
255,0.5,19.5,288.1409699000069,,288.1261463999981,288.1409699000069,288.6404969000141,288.6404969000141,288.6404969000141,,288.90916570002446,left,-19.5,1,1,0.26675549999345094,026472,001,2024-09-06_12h44.31.751,adaptive_staircasepsy,2024.1.5,None,2024-09-06 12h44.36.123286 +0530,
256,0.5,19.5,288.92390039999736,,288.9092704000068,288.92390039999736,289.42376799997874,289.42376799997874,289.42376799997874,289.72361450002063,289.8417681999854,right,19.5,0,0,0.4140363999758847,026472,001,2024-09-06_12h44.31.751,adaptive_staircasepsy,2024.1.5,None,2024-09-06 12h44.36.123286 +0530,
