stair.thisTrialN,stair.stepSize,stair.intensity,thisRow.t,notes,trial.started,fixation.started,grating.started,key_resp.started,fixation.stopped,grating.stopped,trial.stopped,corrAns,tilt,key_resp.corr,key,stair.response,key_resp.rt,participant,session,date,expName,psychopyVersion,frameRate,expStart,
0,2,10.0,0.0252980999648571,,0.006892499979585409,0.0252980999648571,0.5235526999458671,0.5235526999458671,0.5407162999035791,0.8237458999501541,1.144752599997446,right,10.0,1,<psychopy.hardware.keyboard.Keyboard object at 0x0000023800222340>,1,0.5619247000431642,866479,001,2024-09-09_08h30.16.298,adaptive_staircasepsy,2024.1.5,None,2024-09-09 08h30.20.573335 +0530,
1,2,8.0,1.15527469990775,,1.1448450000025332,1.15527469990775,1.6566747999750078,1.6566747999750078,1.6566747999750078,1.9571905999910086,2.3247830999316648,left,-8.0,1,<psychopy.hardware.keyboard.Keyboard object at 0x0000023800222340>,1,0.6600917000323534,866479,001,2024-09-09_08h30.16.298,adaptive_staircasepsy,2024.1.5,None,2024-09-09 08h30.20.573335 +0530,
2,2,6.0,2.3396710999077186,,2.3248656999785453,2.3396710999077186,2.823755999910645,2.823755999910645,2.841055699973367,3.123042599996552,3.5069615999236703,left,-6.0,1,<psychopy.hardware.keyboard.Keyboard object at 0x0000023800222340>,1,0.6676923999330029,866479,001,2024-09-09_08h30.16.298,adaptive_staircasepsy,2024.1.5,None,2024-09-09 08h30.20.573335 +0530,
3,2,4.0,3.523568099946715,,3.507020399905741,3.523568099946715,4.0217648999532685,4.0217648999532685,4.039333499968052,4.322090599918738,4.6060739000095055,right,4.0,1,<psychopy.hardware.keyboard.Keyboard object at 0x0000023800222340>,1,0.5710010000038892,866479,001,2024-09-09_08h30.16.298,adaptive_staircasepsy,2024.1.5,None,2024-09-09 08h30.20.573335 +0530,
4,2,2.0,4.621241000015289,,4.606150100007653,4.621241000015289,5.121253399993293,5.121253399993293,5.121253399993293,5.421587899909355,5.788585899979807,right,2.0,1,<psychopy.hardware.keyboard.Keyboard object at 0x0000023800222340>,1,0.6575601999647915,866479,001,2024-09-09_08h30.16.298,adaptive_staircasepsy,2024.1.5,None,2024-09-09 08h30.20.573335 +0530,
5,2,1.0,5.804537000018172,,5.788674599956721,5.804537000018172,6.304222099948674,6.304222099948674,6.320189799997024,6.603303299983963,7.054906599922106,left,-1.0,1,<psychopy.hardware.keyboard.Keyboard object at 0x0000023800222340>,1,0.7378688000608236,866479,001,2024-09-09_08h30.16.298,adaptive_staircasepsy,2024.1.5,None,2024-09-09 08h30.20.573335 +0530,
6,2,1.0,7.069859499926679,,7.054990499978885,7.069859499926679,7.555110499961302,7.555110499961302,7.571411699987948,7.871018999954686,8.353979400009848,left,-1.0,1,<psychopy.hardware.keyboard.Keyboard object at 0x0000023800222340>,1,0.7970681999577209,866479,001,2024-09-09_08h30.16.298,adaptive_staircasepsy,2024.1.5,None,2024-09-09 08h30.20.573335 +0530,
7,2,1.0,8.369513400015421,,8.35403829999268,8.369513400015421,8.869699199916795,8.869699199916795,8.869699199916795,9.168815299984999,9.603062000009231,left,-1.0,1,<psychopy.hardware.keyboard.Keyboard object at 0x0000023800222340>,1,0.7313958000158891,866479,001,2024-09-09_08h30.16.298,adaptive_staircasepsy,2024.1.5,None,2024-09-09 08h30.20.573335 +0530,
8,2,1.0,9.618384499917738,,9.603130299947225,9.618384499917738,10.10235299996566,10.10235299996566,10.11895299993921,10.403283999999985,10.751911700004712,right,1.0,1,<psychopy.hardware.keyboard.Keyboard object at 0x0000023800222340>,1,0.6479795000050217,866479,001,2024-09-09_08h30.16.298,adaptive_staircasepsy,2024.1.5,None,2024-09-09 08h30.20.573335 +0530,
9,1,1.0,10.767915899981745,,10.751983599970117,10.767915899981745,11.26728919998277,11.26728919998277,11.26728919998277,11.567652800003998,12.070431199972518,left,-1.0,0,<psychopy.hardware.keyboard.Keyboard object at 0x0000023800222340>,0,0.7921426999382675,866479,001,2024-09-09_08h30.16.298,adaptive_staircasepsy,2024.1.5,None,2024-09-09 08h30.20.573335 +0530,
10,1,2.0,12.084826999926008,,12.070552899967879,12.084826999926008,12.583466599928215,12.583466599928215,12.60077099991031,12.882915699970908,13.253091899910942,right,2.0,1,<psychopy.hardware.keyboard.Keyboard object at 0x0000023800222340>,1,0.6651531000388786,866479,001,2024-09-09_08h30.16.298,adaptive_staircasepsy,2024.1.5,None,2024-09-09 08h30.20.573335 +0530,
11,1,2.0,13.266826599952765,,13.253193199983798,13.266826599952765,13.765736799919978,13.765736799919978,13.765736799919978,14.06614729994908,14.733548099990003,left,-2.0,1,<psychopy.hardware.keyboard.Keyboard object at 0x0000023800222340>,1,0.9501557000912726,866479,001,2024-09-09_08h30.16.298,adaptive_staircasepsy,2024.1.5,None,2024-09-09 08h30.20.573335 +0530,
12,1,2.0,14.748631599941291,,14.733622599975206,14.748631599941291,15.24963450001087,15.24963450001087,15.24963450001087,15.548879500012845,15.832556599983945,right,2.0,1,<psychopy.hardware.keyboard.Keyboard object at 0x0000023800222340>,1,0.572059900034219,866479,001,2024-09-09_08h30.16.298,adaptive_staircasepsy,2024.1.5,None,2024-09-09 08h30.20.573335 +0530,
13,1,1.0,15.848651999956928,,15.832619399996474,15.848651999956928,16.347871399950236,16.347871399950236,16.36520339990966,16.64917439990677,17.032455699983984,left,-1.0,1,<psychopy.hardware.keyboard.Keyboard object at 0x0000023800222340>,1,0.6742976000532508,866479,001,2024-09-09_08h30.16.298,adaptive_staircasepsy,2024.1.5,None,2024-09-09 08h30.20.573335 +0530,
14,1,1.0,17.046895399922505,,17.03252619993873,17.046895399922505,17.53003709996119,17.53003709996119,17.54737349995412,17.831978400005028,18.147836999967694,right,1.0,1,<psychopy.hardware.keyboard.Keyboard object at 0x0000023800222340>,1,0.6130283999955282,866479,001,2024-09-09_08h30.16.298,adaptive_staircasepsy,2024.1.5,None,2024-09-09 08h30.20.573335 +0530,
15,1,1.0,18.16284329991322,,18.14790959993843,18.16284329991322,18.6630382000003,18.6630382000003,18.6630382000003,18.963818099931814,19.429267899948172,right,1.0,1,<psychopy.hardware.keyboard.Keyboard object at 0x0000023800222340>,1,0.7525995000032708,866479,001,2024-09-09_08h30.16.298,adaptive_staircasepsy,2024.1.5,None,2024-09-09 08h30.20.573335 +0530,
16,1,1.0,19.44561789999716,,19.429335599998012,19.44561789999716,19.94523820001632,19.94523820001632,19.94523820001632,20.245771399931982,20.5790017999243,right,1.0,1,<psychopy.hardware.keyboard.Keyboard object at 0x0000023800222340>,1,0.6317158000310883,866479,001,2024-09-09_08h30.16.298,adaptive_staircasepsy,2024.1.5,None,2024-09-09 08h30.20.573335 +0530,
17,0.5,1.0,20.59484869998414,,20.57906599994749,20.59484869998414,21.09479579993058,21.09479579993058,21.09479579993058,21.395233599934727,21.645073399995454,left,-1.0,0,<psychopy.hardware.keyboard.Keyboard object at 0x0000023800222340>,0,0.5437423000112176,866479,001,2024-09-09_08h30.16.298,adaptive_staircasepsy,2024.1.5,None,2024-09-09 08h30.20.573335 +0530,
18,0.5,1.5,21.661318599944934,,21.645140199922025,21.661318599944934,22.160257800016552,22.160257800016552,22.160257800016552,22.461984799942,22.74489889992401,right,1.5,1,<psychopy.hardware.keyboard.Keyboard object at 0x0000023800222340>,1,0.577884400030598,866479,001,2024-09-09_08h30.16.298,adaptive_staircasepsy,2024.1.5,None,2024-09-09 08h30.20.573335 +0530,
19,0.5,1.5,22.759748099953867,,22.74497379991226,22.759748099953867,23.244026899919845,23.244026899919845,23.261362799908966,23.54324499994982,23.810849800007418,right,1.5,1,<psychopy.hardware.keyboard.Keyboard object at 0x0000023800222340>,1,0.5607491999398917,866479,001,2024-09-09_08h30.16.298,adaptive_staircasepsy,2024.1.5,None,2024-09-09 08h30.20.573335 +0530,
20,0.5,1.5,23.82574829994701,,23.81091659993399,23.82574829994701,24.32645729999058,24.32645729999058,24.32645729999058,24.64282169996295,24.993111299932934,left,-1.5,1,<psychopy.hardware.keyboard.Keyboard object at 0x0000023800222340>,1,0.658816899987869,866479,001,2024-09-09_08h30.16.298,adaptive_staircasepsy,2024.1.5,None,2024-09-09 08h30.20.573335 +0530,
21,0.5,1.0,25.00877740001306,,24.993182000005618,25.00877740001306,25.50873070000671,25.50873070000671,25.50873070000671,25.80929709994234,26.10931490000803,left,-1.0,1,<psychopy.hardware.keyboard.Keyboard object at 0x0000023800222340>,1,0.5878112999489531,866479,001,2024-09-09_08h30.16.298,adaptive_staircasepsy,2024.1.5,None,2024-09-09 08h30.20.573335 +0530,
22,0.5,1.0,26.12456879997626,,26.109383399947546,26.12456879997626,26.625058399979025,26.625058399979025,26.625058399979025,26.9237575000152,27.32637899997644,right,1.0,1,<psychopy.hardware.keyboard.Keyboard object at 0x0000023800222340>,1,0.6936956000281498,866479,001,2024-09-09_08h30.16.298,adaptive_staircasepsy,2024.1.5,None,2024-09-09 08h30.20.573335 +0530,
23,0.5,1.0,27.341026699985377,,27.326452299952507,27.341026699985377,27.840679300017655,27.840679300017655,27.840679300017655,28.139983300003223,28.460056499927305,right,1.0,1,<psychopy.hardware.keyboard.Keyboard object at 0x0000023800222340>,1,0.6148541999282315,866479,001,2024-09-09_08h30.16.298,adaptive_staircasepsy,2024.1.5,None,2024-09-09 08h30.20.573335 +0530,
24,0.5,1.0,28.474402599968016,,28.460177299915813,28.474402599968016,28.973088299972005,28.973088299972005,28.973088299972005,29.273351999931037,29.706998199922964,left,-1.0,1,<psychopy.hardware.keyboard.Keyboard object at 0x0000023800222340>,1,0.7177250999957323,866479,001,2024-09-09_08h30.16.298,adaptive_staircasepsy,2024.1.5,None,2024-09-09 08h30.20.573335 +0530,
25,0.5,1.0,29.721864399965852,,29.707067299983464,29.721864399965852,30.222569199977443,30.222569199977443,30.222569199977443,30.52149209997151,30.822790100006387,left,-1.0,0,<psychopy.hardware.keyboard.Keyboard object at 0x0000023800222340>,0,0.5944996000034735,866479,001,2024-09-09_08h30.16.298,adaptive_staircasepsy,2024.1.5,None,2024-09-09 08h30.20.573335 +0530,
26,0.5,1.5,30.83792409999296,,30.822854799916968,30.83792409999296,31.32310989999678,31.32310989999678,31.339972299989313,31.638521199929528,32.021169999963604,left,-1.5,1,<psychopy.hardware.keyboard.Keyboard object at 0x0000023800222340>,1,0.6871105000609532,866479,001,2024-09-09_08h30.16.298,adaptive_staircasepsy,2024.1.5,None,2024-09-09 08h30.20.573335 +0530,
27,0.5,1.5,32.102689199964516,,32.02123139996547,32.102689199964516,32.53744029998779,32.53744029998779,32.60430779994931,32.83800089999568,33.037813199916855,right,1.5,1,<psychopy.hardware.keyboard.Keyboard object at 0x0000023800222340>,1,0.484034699969925,866479,001,2024-09-09_08h30.16.298,adaptive_staircasepsy,2024.1.5,None,2024-09-09 08h30.20.573335 +0530,
28,0.5,1.5,33.05304659996182,,33.037872699904256,33.05304659996182,33.55367369996384,33.55367369996384,33.55367369996384,33.85393889993429,34.171975299948826,left,-1.5,1,<psychopy.hardware.keyboard.Keyboard object at 0x0000023800222340>,1,0.6153634999645874,866479,001,2024-09-09_08h30.16.298,adaptive_staircasepsy,2024.1.5,None,2024-09-09 08h30.20.573335 +0530,
29,0.5,1.0,34.18672729993705,,34.17207969992887,34.18672729993705,34.68589389999397,34.68589389999397,34.70336499996483,34.9857803999912,35.3722698999336,left,-1.0,1,<psychopy.hardware.keyboard.Keyboard object at 0x0000023800222340>,1,0.6746294000186026,866479,001,2024-09-09_08h30.16.298,adaptive_staircasepsy,2024.1.5,None,2024-09-09 08h30.20.573335 +0530,
30,0.5,1.0,35.38605989993084,,35.37240869994275,35.38605989993084,35.88593729992863,35.88593729992863,35.90148819994647,36.18549439997878,36.50320059992373,right,1.0,0,<psychopy.hardware.keyboard.Keyboard object at 0x0000023800222340>,0,0.6161196000175551,866479,001,2024-09-09_08h30.16.298,adaptive_staircasepsy,2024.1.5,None,2024-09-09 08h30.20.573335 +0530,
31,0.5,1.5,36.51886959990952,,36.50326689996291,36.51886959990952,37.018127999966964,37.018127999966964,37.03478439990431,37.31826299999375,37.751376800006256,right,1.5,0,<psychopy.hardware.keyboard.Keyboard object at 0x0000023800222340>,0,0.7230217999313027,866479,001,2024-09-09_08h30.16.298,adaptive_staircasepsy,2024.1.5,None,2024-09-09 08h30.20.573335 +0530,
32,0.5,2.0,37.767610499984585,,37.75145340000745,37.767610499984585,38.266838699928485,38.266838699928485,38.266838699928485,38.567213799920864,39.15124849998392,right,2.0,0,<psychopy.hardware.keyboard.Keyboard object at 0x0000023800222340>,0,0.8781996000325307,866479,001,2024-09-09_08h30.16.298,adaptive_staircasepsy,2024.1.5,None,2024-09-09 08h30.20.573335 +0530,
33,0.5,2.5,39.16705529997125,,39.1513266999973,39.16705529997125,39.649792499956675,39.649792499956675,39.66655530000571,39.950032499968074,40.51673589996062,right,2.5,1,<psychopy.hardware.keyboard.Keyboard object at 0x0000023800222340>,1,0.8537076000357047,866479,001,2024-09-09_08h30.16.298,adaptive_staircasepsy,2024.1.5,None,2024-09-09 08h30.20.573335 +0530,
34,0.5,2.5,40.53191219992004,,40.51679659995716,40.53191219992004,41.03216549998615,41.03216549998615,41.03216549998615,41.332488199928775,41.966008899966255,right,2.5,1,<psychopy.hardware.keyboard.Keyboard object at 0x0000023800222340>,1,0.9208718999288976,866479,001,2024-09-09_08h30.16.298,adaptive_staircasepsy,2024.1.5,None,2024-09-09 08h30.20.573335 +0530,
35,0.5,2.5,41.98245649994351,,41.96614039991982,41.98245649994351,42.46392609993927,42.46392609993927,42.49760080000851,42.76495919993613,43.49743959994521,right,2.5,1,<psychopy.hardware.keyboard.Keyboard object at 0x0000023800222340>,1,1.0289504000684246,866479,001,2024-09-09_08h30.16.298,adaptive_staircasepsy,2024.1.5,None,2024-09-09 08h30.20.573335 +0530,
36,0.5,2.0,43.513806300004944,,43.49751379992813,43.513806300004944,44.013252899982035,44.013252899982035,44.013252899982035,44.313736799987964,44.81475179991685,left,-2.0,1,<psychopy.hardware.keyboard.Keyboard object at 0x0000023800222340>,1,0.7878124000271782,866479,001,2024-09-09_08h30.16.298,adaptive_staircasepsy,2024.1.5,None,2024-09-09 08h30.20.573335 +0530,
37,0.5,2.0,44.83045589993708,,44.814838899997994,44.83045589993708,45.32942969992291,45.32942969992291,45.32942969992291,45.62866149994079,46.11247359996196,right,2.0,1,<psychopy.hardware.keyboard.Keyboard object at 0x0000023800222340>,1,0.7778319000499323,866479,001,2024-09-09_08h30.16.298,adaptive_staircasepsy,2024.1.5,None,2024-09-09 08h30.20.573335 +0530,
38,0.5,2.0,46.12944209994748,,46.11303519993089,46.12944209994748,46.61289789993316,46.61289789993316,46.63015009998344,46.92846640001517,47.5123220999958,right,2.0,1,<psychopy.hardware.keyboard.Keyboard object at 0x0000023800222340>,1,0.8900071000680327,866479,001,2024-09-09_08h30.16.298,adaptive_staircasepsy,2024.1.5,None,2024-09-09 08h30.20.573335 +0530,
39,0.5,1.5,47.52728809998371,,47.51238309999462,47.52728809998371,48.02792169991881,48.02792169991881,48.02792169991881,48.326905499910936,48.72874449996743,left,-1.5,1,<psychopy.hardware.keyboard.Keyboard object at 0x0000023800222340>,1,0.6938368000555784,866479,001,2024-09-09_08h30.16.298,adaptive_staircasepsy,2024.1.5,None,2024-09-09 08h30.20.573335 +0530,
40,0.5,1.5,48.744175800005905,,48.72882209997624,48.744175800005905,49.2278273999691,49.2278273999691,49.244385799975134,49.54296869994141,49.977083200006746,left,-1.5,0,<psychopy.hardware.keyboard.Keyboard object at 0x0000023800222340>,0,0.7384017000440508,866479,001,2024-09-09_08h30.16.298,adaptive_staircasepsy,2024.1.5,None,2024-09-09 08h30.20.573335 +0530,
41,0.5,2.0,49.99247159995139,,49.977151299943216,49.99247159995139,50.49248749995604,50.49248749995604,50.49248749995604,50.79304019990377,51.177360599976964,left,-2.0,1,<psychopy.hardware.keyboard.Keyboard object at 0x0000023800222340>,1,0.676312500028871,866479,001,2024-09-09_08h30.16.298,adaptive_staircasepsy,2024.1.5,None,2024-09-09 08h30.20.573335 +0530,
42,0.5,2.0,51.192377500003204,,51.17743239994161,51.192377500003204,51.675931999925524,51.675931999925524,51.69371689995751,51.97551779996138,52.392814399907365,left,-2.0,1,<psychopy.hardware.keyboard.Keyboard object at 0x0000023800222340>,1,0.7121606000000611,866479,001,2024-09-09_08h30.16.298,adaptive_staircasepsy,2024.1.5,None,2024-09-09 08h30.20.573335 +0530,
43,0.5,2.0,52.40843579999637,,52.39289000001736,52.40843579999637,52.9076822999632,52.9076822999632,52.9076822999632,53.209285799995996,53.84226900001522,left,-2.0,0,<psychopy.hardware.keyboard.Keyboard object at 0x0000023800222340>,0,0.9247796999989077,866479,001,2024-09-09_08h30.16.298,adaptive_staircasepsy,2024.1.5,None,2024-09-09 08h30.20.573335 +0530,
44,0.5,2.5,53.85753209993709,,53.842354199965484,53.85753209993709,54.357356399996206,54.357356399996206,54.357356399996206,54.65626469999552,55.25760609994177,right,2.5,1,<psychopy.hardware.keyboard.Keyboard object at 0x0000023800222340>,1,0.8827950999839231,866479,001,2024-09-09_08h30.16.298,adaptive_staircasepsy,2024.1.5,None,2024-09-09 08h30.20.573335 +0530,
45,0.5,2.5,55.273372199968435,,55.25767730001826,55.273372199968435,55.77322589990217,55.77322589990217,55.789404499926604,56.072051299968734,56.67270449991338,left,-2.5,1,<psychopy.hardware.keyboard.Keyboard object at 0x0000023800222340>,1,0.8949476999696344,866479,001,2024-09-09_08h30.16.298,adaptive_staircasepsy,2024.1.5,None,2024-09-09 08h30.20.573335 +0530,
46,0.5,2.5,56.68929999996908,,56.672778200008906,56.68929999996908,57.17297559999861,57.17297559999861,57.18981529993471,57.48879019997548,58.47261479997542,right,2.5,1,<psychopy.hardware.keyboard.Keyboard object at 0x0000023800222340>,1,1.2829139999812469,866479,001,2024-09-09_08h30.16.298,adaptive_staircasepsy,2024.1.5,None,2024-09-09 08h30.20.573335 +0530,
47,0.5,2.0,58.48719879996497,,58.472683399915695,58.48719879996497,58.987720699980855,58.987720699980855,58.987720699980855,59.287871700013056,59.67141629999969,left,-2.0,1,<psychopy.hardware.keyboard.Keyboard object at 0x0000023800222340>,1,0.6798748000292107,866479,001,2024-09-09_08h30.16.298,adaptive_staircasepsy,2024.1.5,None,2024-09-09 08h30.20.573335 +0530,
48,0.5,2.0,59.686875799903646,,59.67149709991645,59.686875799903646,60.18600779992994,60.18600779992994,60.18600779992994,60.48691289999988,60.870902900001965,left,-2.0,0,<psychopy.hardware.keyboard.Keyboard object at 0x0000023800222340>,0,0.6733364999527112,866479,001,2024-09-09_08h30.16.298,adaptive_staircasepsy,2024.1.5,None,2024-09-09 08h30.20.573335 +0530,
49,0.5,2.5,60.88670219993219,,60.87098179990426,60.88670219993219,61.386167499935254,61.386167499935254,61.386167499935254,61.685457499930635,62.10344099998474,left,-2.5,1,<psychopy.hardware.keyboard.Keyboard object at 0x0000023800222340>,1,0.7030787999974564,866479,001,2024-09-09_08h30.16.298,adaptive_staircasepsy,2024.1.5,None,2024-09-09 08h30.20.573335 +0530,
50,0.5,2.5,62.11874339997303,,62.10350079997443,62.11874339997303,62.619238600018434,62.619238600018434,62.619238600018434,62.91792379994877,63.2351112999022,right,2.5,1,<psychopy.hardware.keyboard.Keyboard object at 0x0000023800222340>,1,0.6025036999490112,866479,001,2024-09-09_08h30.16.298,adaptive_staircasepsy,2024.1.5,None,2024-09-09 08h30.20.573335 +0530,
51,0.5,2.5,63.25250479998067,,63.23518329998478,63.25250479998067,63.73584779992234,63.73584779992234,63.7513631999027,64.05120049999095,64.3693995999638,left,-2.5,1,<psychopy.hardware.keyboard.Keyboard object at 0x0000023800222340>,1,0.6325415999162942,866479,001,2024-09-09_08h30.16.298,adaptive_staircasepsy,2024.1.5,None,2024-09-09 08h30.20.573335 +0530,
52,0.5,2.0,64.38369119993877,,64.36946989991702,64.38369119993877,64.88549489993602,64.88549489993602,64.88549489993602,65.20094579993747,65.53355129994452,right,2.0,1,<psychopy.hardware.keyboard.Keyboard object at 0x0000023800222340>,1,0.6396040000254288,866479,001,2024-09-09_08h30.16.298,adaptive_staircasepsy,2024.1.5,None,2024-09-09 08h30.20.573335 +0530,
53,0.5,2.0,65.54982329998165,,65.5336149999639,65.54982329998165,66.03392349998467,66.03392349998467,66.05083959992044,66.34954009996727,67.01762569998391,left,-2.0,1,<psychopy.hardware.keyboard.Keyboard object at 0x0000023800222340>,1,0.9827229999937117,866479,001,2024-09-09_08h30.16.298,adaptive_staircasepsy,2024.1.5,None,2024-09-09 08h30.20.573335 +0530,
54,0.5,2.0,67.03160619991831,,67.01769339991733,67.03160619991831,67.51710059994366,67.51710059994366,67.53348519990686,67.83266249997541,68.31667450000532,right,2.0,1,<psychopy.hardware.keyboard.Keyboard object at 0x0000023800222340>,1,0.7959997999714687,866479,001,2024-09-09_08h30.16.298,adaptive_staircasepsy,2024.1.5,None,2024-09-09 08h30.20.573335 +0530,
55,0.5,1.5,68.33146299992222,,68.31677409994882,68.33146299992222,68.83170509990305,68.83170509990305,68.83170509990305,69.13061449991073,69.89783719996922,right,1.5,1,<psychopy.hardware.keyboard.Keyboard object at 0x0000023800222340>,1,1.0553434999892488,866479,001,2024-09-09_08h30.16.298,adaptive_staircasepsy,2024.1.5,None,2024-09-09 08h30.20.573335 +0530,
56,0.5,1.5,69.91353059990797,,69.89789969997946,69.91353059990797,70.3965373999672,70.3965373999672,70.41362689994276,70.69642599998042,71.51444299996365,right,1.5,1,<psychopy.hardware.keyboard.Keyboard object at 0x0000023800222340>,1,1.1101251000072807,866479,001,2024-09-09_08h30.16.298,adaptive_staircasepsy,2024.1.5,None,2024-09-09 08h30.20.573335 +0530,
57,0.5,1.5,71.53023979999125,,71.5145085999975,71.53023979999125,72.01354650000576,72.01354650000576,72.03082629991695,72.32883739995304,72.79649199999403,left,-1.5,1,<psychopy.hardware.keyboard.Keyboard object at 0x0000023800222340>,1,0.7731145999860018,866479,001,2024-09-09_08h30.16.298,adaptive_staircasepsy,2024.1.5,None,2024-09-09 08h30.20.573335 +0530,
58,0.5,1.0,72.81148729997221,,72.79656389995944,72.81148729997221,73.31162789999507,73.31162789999507,73.31162789999507,73.61168370000087,73.87853149999864,right,1.0,1,<psychopy.hardware.keyboard.Keyboard object at 0x0000023800222340>,1,0.5525377999292687,866479,001,2024-09-09_08h30.16.298,adaptive_staircasepsy,2024.1.5,None,2024-09-09 08h30.20.573335 +0530,
59,0.5,1.0,73.89506669994444,,73.8786285999231,73.89506669994444,74.3774446999887,74.3774446999887,74.39363159995992,74.6778442999348,75.19509029993787,left,-1.0,1,<psychopy.hardware.keyboard.Keyboard object at 0x0000023800222340>,1,0.8033099999884143,866479,001,2024-09-09_08h30.16.298,adaptive_staircasepsy,2024.1.5,None,2024-09-09 08h30.20.573335 +0530,
60,0.5,1.0,75.21072069997899,,75.19516619993374,75.21072069997899,75.71037919993978,75.71037919993978,75.71037919993978,76.0092791999923,76.49433859996498,left,-1.0,1,<psychopy.hardware.keyboard.Keyboard object at 0x0000023800222340>,1,0.7773954001022503,866479,001,2024-09-09_08h30.16.298,adaptive_staircasepsy,2024.1.5,None,2024-09-09 08h30.20.573335 +0530,
61,0.5,1.0,76.51035280001815,,76.49440379999578,76.51035280001815,77.0116123999469,77.0116123999469,77.0116123999469,77.32639119995292,78.27626299997792,left,-1.0,1,<psychopy.hardware.keyboard.Keyboard object at 0x0000023800222340>,1,1.2497905999189243,866479,001,2024-09-09_08h30.16.298,adaptive_staircasepsy,2024.1.5,None,2024-09-09 08h30.20.573335 +0530,
62,0.5,1.0,78.29210299998522,,78.2763293000171,78.29210299998522,78.77444009995088,78.77444009995088,78.79130879999138,79.07578289997764,79.57483419997152,right,1.0,0,<psychopy.hardware.keyboard.Keyboard object at 0x0000023800222340>,0,0.7890049000270665,866479,001,2024-09-09_08h30.16.298,adaptive_staircasepsy,2024.1.5,None,2024-09-09 08h30.20.573335 +0530,
63,0.5,1.5,79.59083409991581,,79.57490179990418,79.59083409991581,80.09063589992002,80.09063589992002,80.09063589992002,80.39055689994711,81.19240609998815,right,1.5,1,<psychopy.hardware.keyboard.Keyboard object at 0x0000023800222340>,1,1.0968543000053614,866479,001,2024-09-09_08h30.16.298,adaptive_staircasepsy,2024.1.5,None,2024-09-09 08h30.20.573335 +0530,
64,0.5,1.5,81.20711720001418,,81.19247919996269,81.20711720001418,81.70647899992764,81.70647899992764,81.72386739996728,82.00639399990905,82.69016969995573,left,-1.5,1,<psychopy.hardware.keyboard.Keyboard object at 0x0000023800222340>,1,0.9827208000933751,866479,001,2024-09-09_08h30.16.298,adaptive_staircasepsy,2024.1.5,None,2024-09-09 08h30.20.573335 +0530,
65,0.5,1.5,82.70587349997368,,82.69023949990515,82.70587349997368,83.2055560000008,83.2055560000008,83.2055560000008,83.50603769998997,84.23837169993203,left,-1.5,1,<psychopy.hardware.keyboard.Keyboard object at 0x0000023800222340>,1,1.0286420000484213,866479,001,2024-09-09_08h30.16.298,adaptive_staircasepsy,2024.1.5,None,2024-09-09 08h30.20.573335 +0530,
66,0.5,1.0,84.25484959990717,,84.23843689996284,84.25484959990717,84.73917039996013,84.73917039996013,84.75513349997345,85.05491399997845,85.50722759997007,left,-1.0,1,<psychopy.hardware.keyboard.Keyboard object at 0x0000023800222340>,1,0.7558986999792978,866479,001,2024-09-09_08h30.16.298,adaptive_staircasepsy,2024.1.5,None,2024-09-09 08h30.20.573335 +0530,
67,0.5,1.0,85.52137370000128,,85.50736129994038,85.52137370000128,86.01985409995541,86.01985409995541,86.01985409995541,86.32062689994927,86.90447029995266,left,-1.0,1,<psychopy.hardware.keyboard.Keyboard object at 0x0000023800222340>,1,0.8739252999657765,866479,001,2024-09-09_08h30.16.298,adaptive_staircasepsy,2024.1.5,None,2024-09-09 08h30.20.573335 +0530,
68,0.5,1.0,86.91967859992292,,86.90454129991122,86.91967859992292,87.42008239997085,87.42008239997085,87.42008239997085,87.71890949993394,87.97065559995826,right,1.0,1,<psychopy.hardware.keyboard.Keyboard object at 0x0000023800222340>,1,0.54594460001681,866479,001,2024-09-09_08h30.16.298,adaptive_staircasepsy,2024.1.5,None,2024-09-09 08h30.20.573335 +0530,
69,0.5,1.0,87.98618479992729,,87.97072639991529,87.98618479992729,88.48545719997492,88.48545719997492,88.48545719997492,88.78469459991902,89.33582769997884,left,-1.0,0,<psychopy.hardware.keyboard.Keyboard object at 0x0000023800222340>,0,0.8469178000232205,866479,001,2024-09-09_08h30.16.298,adaptive_staircasepsy,2024.1.5,None,2024-09-09 08h30.20.573335 +0530,
70,0.5,1.5,89.3511083999183,,89.33590549998917,89.3511083999183,89.85136039997451,89.85136039997451,89.85136039997451,90.15135890000965,90.80109650001395,left,-1.5,1,<psychopy.hardware.keyboard.Keyboard object at 0x0000023800222340>,1,0.9429566999897361,866479,001,2024-09-09_08h30.16.298,adaptive_staircasepsy,2024.1.5,None,2024-09-09 08h30.20.573335 +0530,
71,0.5,1.5,90.81738479994237,,90.80116009991616,90.81738479994237,91.30017549998593,91.30017549998593,91.31686279992573,91.59987449995242,92.18487659993116,left,-1.5,1,<psychopy.hardware.keyboard.Keyboard object at 0x0000023800222340>,1,0.8692324999719858,866479,001,2024-09-09_08h30.16.298,adaptive_staircasepsy,2024.1.5,None,2024-09-09 08h30.20.573335 +0530,
72,0.5,1.5,92.19930159999058,,92.18495089991484,92.19930159999058,92.70106859994121,92.70106859994121,92.70106859994121,93.01794769999105,93.3175096999621,right,1.5,1,<psychopy.hardware.keyboard.Keyboard object at 0x0000023800222340>,1,0.6149214999750257,866479,001,2024-09-09_08h30.16.298,adaptive_staircasepsy,2024.1.5,None,2024-09-09 08h30.20.573335 +0530,
73,0.5,1.0,93.33268150000367,,93.31757869990543,93.33268150000367,93.83200309996027,93.83200309996027,93.83200309996027,94.13191260001622,94.58160739997402,left,-1.0,1,<psychopy.hardware.keyboard.Keyboard object at 0x0000023800222340>,1,0.7422339000040665,866479,001,2024-09-09_08h30.16.298,adaptive_staircasepsy,2024.1.5,None,2024-09-09 08h30.20.573335 +0530,
74,0.5,1.0,94.59855200001039,,94.58166829997208,94.59855200001039,95.08244099991862,95.08244099991862,95.09904080000706,95.39777779998258,95.64781049999874,right,1.0,1,<psychopy.hardware.keyboard.Keyboard object at 0x0000023800222340>,1,0.5571804000064731,866479,001,2024-09-09_08h30.16.298,adaptive_staircasepsy,2024.1.5,None,2024-09-09 08h30.20.573335 +0530,
75,0.5,1.0,95.66452439990826,,95.64787340001203,95.66452439990826,96.14865909994114,96.14865909994114,96.16354149999097,96.46419739990961,97.0818759999238,right,1.0,1,<psychopy.hardware.keyboard.Keyboard object at 0x0000023800222340>,1,0.9289140999317169,866479,001,2024-09-09_08h30.16.298,adaptive_staircasepsy,2024.1.5,None,2024-09-09 08h30.20.573335 +0530,
76,0.5,1.0,97.09733199991751,,97.08195999998134,97.09733199991751,97.59653549990617,97.59653549990617,97.61352569994051,97.89636849996168,98.3297691999469,left,-1.0,0,<psychopy.hardware.keyboard.Keyboard object at 0x0000023800222340>,0,0.7264692999888211,866479,001,2024-09-09_08h30.16.298,adaptive_staircasepsy,2024.1.5,None,2024-09-09 08h30.20.573335 +0530,
77,0.5,1.5,98.34561660001054,,98.32984319992829,98.34561660001054,98.84518519998528,98.84518519998528,98.84518519998528,99.14699539996218,99.64632880000863,right,1.5,1,<psychopy.hardware.keyboard.Keyboard object at 0x0000023800222340>,1,0.7916591999819502,866479,001,2024-09-09_08h30.16.298,adaptive_staircasepsy,2024.1.5,None,2024-09-09 08h30.20.573335 +0530,
78,0.5,1.5,99.66257359995507,,99.64642289991025,99.66257359995507,100.16224400000647,100.16224400000647,100.17785819992423,100.4610349999275,100.72894870000891,left,-1.5,1,<psychopy.hardware.keyboard.Keyboard object at 0x0000023800222340>,1,0.5631701999809593,866479,001,2024-09-09_08h30.16.298,adaptive_staircasepsy,2024.1.5,None,2024-09-09 08h30.20.573335 +0530,
79,0.5,1.5,100.74479609995615,,100.72902410000097,100.74479609995615,101.24421469995286,101.24421469995286,101.24421469995286,101.54394110001158,102.06312109995633,left,-1.5,1,<psychopy.hardware.keyboard.Keyboard object at 0x0000023800222340>,1,0.811667799949646,866479,001,2024-09-09_08h30.16.298,adaptive_staircasepsy,2024.1.5,None,2024-09-09 08h30.20.573335 +0530,
80,0.5,1.0,102.07723890000489,,102.06320969993249,102.07723890000489,102.57671619998291,102.57671619998291,102.57671619998291,102.87686799990479,103.22630380000919,right,1.0,1,<psychopy.hardware.keyboard.Keyboard object at 0x0000023800222340>,1,0.6452361000701785,866479,001,2024-09-09_08h30.16.298,adaptive_staircasepsy,2024.1.5,None,2024-09-09 08h30.20.573335 +0530,
81,0.5,1.0,103.2424619999947,,103.22637029993348,103.2424619999947,103.72621799993794,103.72621799993794,103.74192920001224,104.02541399991605,104.51036829990335,right,1.0,0,<psychopy.hardware.keyboard.Keyboard object at 0x0000023800222340>,0,0.782943099969998,866479,001,2024-09-09_08h30.16.298,adaptive_staircasepsy,2024.1.5,None,2024-09-09 08h30.20.573335 +0530,
82,0.5,1.5,104.5259483999107,,104.51043689996004,104.5259483999107,105.02554549998604,105.02554549998604,105.04168989998288,105.32460619998164,105.62613019999117,right,1.5,1,<psychopy.hardware.keyboard.Keyboard object at 0x0000023800222340>,1,0.5936993999639526,866479,001,2024-09-09_08h30.16.298,adaptive_staircasepsy,2024.1.5,None,2024-09-09 08h30.20.573335 +0530,
83,0.5,1.5,105.64069319993723,,105.62624239991419,105.64069319993723,106.12502759997733,106.12502759997733,106.14288719999604,106.42404279997572,106.82554879994132,left,-1.5,1,<psychopy.hardware.keyboard.Keyboard object at 0x0000023800222340>,1,0.6845025001093745,866479,001,2024-09-09_08h30.16.298,adaptive_staircasepsy,2024.1.5,None,2024-09-09 08h30.20.573335 +0530,
84,0.5,1.5,106.84001519996673,,106.82562109990977,106.84001519996673,107.34064589999616,107.34064589999616,107.34064589999616,107.64017239992972,108.05701849993784,right,1.5,1,<psychopy.hardware.keyboard.Keyboard object at 0x0000023800222340>,1,0.7070991999935359,866479,001,2024-09-09_08h30.16.298,adaptive_staircasepsy,2024.1.5,None,2024-09-09 08h30.20.573335 +0530,
85,0.5,1.0,108.0728849999141,,108.05709149991162,108.0728849999141,108.55545889993664,108.55545889993664,108.57495519996155,108.85720759991091,109.29050349991303,left,-1.0,1,<psychopy.hardware.keyboard.Keyboard object at 0x0000023800222340>,1,0.7268231000052765,866479,001,2024-09-09_08h30.16.298,adaptive_staircasepsy,2024.1.5,None,2024-09-09 08h30.20.573335 +0530,
86,0.5,1.0,109.30585110001266,,109.29057620000094,109.30585110001266,109.7890228999313,109.7890228999313,109.80506139993668,110.08890709991101,110.5223805999849,left,-1.0,1,<psychopy.hardware.keyboard.Keyboard object at 0x0000023800222340>,1,0.7198586999438703,866479,001,2024-09-09_08h30.16.298,adaptive_staircasepsy,2024.1.5,None,2024-09-09 08h30.20.573335 +0530,
87,0.5,1.0,110.53869409998879,,110.52263089991175,110.53869409998879,111.03877689992078,111.03877689992078,111.03877689992078,111.33789630001411,111.93868459993973,left,-1.0,1,<psychopy.hardware.keyboard.Keyboard object at 0x0000023800222340>,1,0.89846099994611,866479,001,2024-09-09_08h30.16.298,adaptive_staircasepsy,2024.1.5,None,2024-09-09 08h30.20.573335 +0530,
88,0.5,1.0,111.95441329991445,,111.93875899992418,111.95441329991445,112.45353409997188,112.45353409997188,112.45353409997188,112.7543553999858,113.18726889998652,right,1.0,1,<psychopy.hardware.keyboard.Keyboard object at 0x0000023800222340>,1,0.7216136999195442,866479,001,2024-09-09_08h30.16.298,adaptive_staircasepsy,2024.1.5,None,2024-09-09 08h30.20.573335 +0530,
89,0.5,1.0,113.20285749994218,,113.18732989998534,113.20285749994218,113.68580360000487,113.68580360000487,113.7028660000069,113.98657369997818,114.971074400004,right,1.0,1,<psychopy.hardware.keyboard.Keyboard object at 0x0000023800222340>,1,1.2794083999469876,866479,001,2024-09-09_08h30.16.298,adaptive_staircasepsy,2024.1.5,None,2024-09-09 08h30.20.573335 +0530,
90,0.5,1.0,114.98594479996245,,114.97115619992837,114.98594479996245,115.48520779993851,115.48520779993851,115.48520779993851,115.7852956999559,116.269435999915,right,1.0,1,<psychopy.hardware.keyboard.Keyboard object at 0x0000023800222340>,1,0.7706327000632882,866479,001,2024-09-09_08h30.16.298,adaptive_staircasepsy,2024.1.5,None,2024-09-09 08h30.20.573335 +0530,
91,0.5,1.0,116.28405609994661,,116.26951579994056,116.28405609994661,116.786225299933,116.786225299933,116.786225299933,117.10147280001547,117.46807999990415,right,1.0,1,<psychopy.hardware.keyboard.Keyboard object at 0x0000023800222340>,1,0.680320700048469,866479,001,2024-09-09_08h30.16.298,adaptive_staircasepsy,2024.1.5,None,2024-09-09 08h30.20.573335 +0530,
92,0.5,1.0,117.484052099986,,117.46815789991524,117.484052099986,117.96870869991835,117.96870869991835,117.98470799997449,118.28401589998975,118.80107779998798,left,-1.0,1,<psychopy.hardware.keyboard.Keyboard object at 0x0000023800222340>,1,0.8159781999420375,866479,001,2024-09-09_08h30.16.298,adaptive_staircasepsy,2024.1.5,None,2024-09-09 08h30.20.573335 +0530,
93,0.5,1.0,118.81585869996343,,118.80116499995347,118.81585869996343,119.31653339997865,119.31653339997865,119.31653339997865,119.63253950001672,120.11576239997521,right,1.0,1,<psychopy.hardware.keyboard.Keyboard object at 0x0000023800222340>,1,0.786455399938859,866479,001,2024-09-09_08h30.16.298,adaptive_staircasepsy,2024.1.5,None,2024-09-09 08h30.20.573335 +0530,
94,0.5,1.0,120.13271099992562,,120.11583499994595,120.13271099992562,120.61639169999398,120.61639169999398,120.63209580001421,120.91473720001522,121.39955179998651,left,-1.0,1,<psychopy.hardware.keyboard.Keyboard object at 0x0000023800222340>,1,0.7662716000340879,866479,001,2024-09-09_08h30.16.298,adaptive_staircasepsy,2024.1.5,None,2024-09-09 08h30.20.573335 +0530,
95,0.5,1.0,121.4149281999562,,121.39961969992146,121.4149281999562,121.91469699994195,121.91469699994195,121.91469699994195,122.21379239996895,122.7505458999658,left,-1.0,1,<psychopy.hardware.keyboard.Keyboard object at 0x0000023800222340>,1,0.8303699999814853,866479,001,2024-09-09_08h30.16.298,adaptive_staircasepsy,2024.1.5,None,2024-09-09 08h30.20.573335 +0530,
96,0.5,1.0,122.76483050000388,,122.7506669999566,122.76483050000388,123.26389419997577,123.26389419997577,123.27992739994079,123.56464569992386,124.06621849990916,left,-1.0,0,<psychopy.hardware.keyboard.Keyboard object at 0x0000023800222340>,0,0.7896482000360265,866479,001,2024-09-09_08h30.16.298,adaptive_staircasepsy,2024.1.5,None,2024-09-09 08h30.20.573335 +0530,
97,0.5,1.5,124.08013669995125,,124.06633299996611,124.08013669995125,124.5808939000126,124.5808939000126,124.5808939000126,124.89659259992186,125.34621619991958,right,1.5,1,<psychopy.hardware.keyboard.Keyboard object at 0x0000023800222340>,1,0.7576090999646112,866479,001,2024-09-09_08h30.16.298,adaptive_staircasepsy,2024.1.5,None,2024-09-09 08h30.20.573335 +0530,
98,0.5,1.5,125.3623042999534,,125.34628729999531,125.3623042999534,125.84573279996403,125.84573279996403,125.86167279991787,126.14480379992165,126.64571109996177,right,1.5,1,<psychopy.hardware.keyboard.Keyboard object at 0x0000023800222340>,1,0.7902461999328807,866479,001,2024-09-09_08h30.16.298,adaptive_staircasepsy,2024.1.5,None,2024-09-09 08h30.20.573335 +0530,
99,0.5,1.5,126.66080869990401,,126.64577559998725,126.66080869990401,127.16201159998309,127.16201159998309,127.16201159998309,127.46273229992948,128.0471685999073,left,-1.5,1,<psychopy.hardware.keyboard.Keyboard object at 0x0000023800222340>,1,0.8823746999260038,866479,001,2024-09-09_08h30.16.298,adaptive_staircasepsy,2024.1.5,None,2024-09-09 08h30.20.573335 +0530,
